t /s	T /°C	HF /mw
17.888	74.018	-5.545
17.896	74.105	-5.545
17.904	74.187	-5.546
17.913	74.270	-5.546
17.921	74.352	-5.547
17.929	74.435	-5.548
17.938	74.519	-5.549
17.946	74.601	-5.549
17.954	74.687	-5.549
17.963	74.768	-5.550
17.971	74.851	-5.550
17.979	74.940	-5.550
17.988	75.025	-5.550
17.996	75.108	-5.550
18.004	75.190	-5.550
18.013	75.266	-5.550
18.021	75.353	-5.550
18.029	75.434	-5.550
18.038	75.523	-5.550
18.046	75.607	-5.551
18.054	75.690	-5.551
18.063	75.770	-5.551
18.071	75.854	-5.551
18.079	75.936	-5.551
18.088	76.018	-5.551
18.096	76.103	-5.552
18.104	76.185	-5.552
18.113	76.270	-5.552
18.121	76.355	-5.552
18.129	76.438	-5.552
18.138	76.525	-5.552
18.146	76.606	-5.552
18.154	76.691	-5.553
18.163	76.770	-5.553
18.171	76.851	-5.553
18.179	76.939	-5.553
18.188	77.019	-5.553
18.196	77.105	-5.553
18.204	77.190	-5.553
18.213	77.273	-5.553
18.221	77.354	-5.553
18.229	77.435	-5.553
18.238	77.521	-5.553
18.246	77.608	-5.553
18.254	77.693	-5.553
18.263	77.777	-5.553
18.271	77.857	-5.552
18.279	77.940	-5.552
18.288	78.022	-5.552
18.296	78.106	-5.552
18.304	78.187	-5.553
18.313	78.275	-5.553
18.321	78.356	-5.553
18.329	78.440	-5.553
18.338	78.523	-5.553
18.346	78.606	-5.553
18.354	78.689	-5.554
18.363	78.774	-5.554
18.371	78.855	-5.554
18.379	78.945	-5.554
18.388	79.022	-5.554
18.396	79.108	-5.554
18.404	79.191	-5.554
18.413	79.276	-5.553
18.421	79.363	-5.553
18.429	79.442	-5.553
18.438	79.525	-5.553
18.446	79.610	-5.553
18.454	79.695	-5.553
18.463	79.778	-5.554
18.471	79.860	-5.554
18.479	79.945	-5.554
18.488	80.027	-5.554
18.496	80.114	-5.554
18.504	80.195	-5.554
18.513	80.282	-5.554
18.521	80.356	-5.554
18.529	80.442	-5.554
18.538	80.523	-5.554
18.546	80.610	-5.555
18.554	80.694	-5.555
18.563	80.780	-5.555
18.571	80.857	-5.555
18.579	80.944	-5.555
18.588	81.026	-5.555
18.596	81.111	-5.555
18.604	81.195	-5.556
18.613	81.279	-5.556
18.621	81.361	-5.556
18.629	81.446	-5.556
18.638	81.529	-5.556
18.646	81.612	-5.556
18.654	81.694	-5.556
18.663	81.779	-5.556
18.671	81.863	-5.556
18.679	81.950	-5.556
18.688	82.032	-5.556
18.696	82.113	-5.556
18.704	82.201	-5.556
18.713	82.286	-5.556
18.721	82.363	-5.556
18.729	82.453	-5.556
18.738	82.535	-5.557
18.746	82.615	-5.557
18.754	82.697	-5.557
18.763	82.781	-5.557
18.771	82.866	-5.558
18.779	82.952	-5.558
18.788	83.033	-5.559
18.796	83.121	-5.559
18.804	83.206	-5.560
18.813	83.285	-5.560
18.821	83.366	-5.560
18.829	83.453	-5.560
18.838	83.536	-5.560
18.846	83.622	-5.560
18.854	83.702	-5.561
18.863	83.786	-5.561
18.871	83.866	-5.561
18.879	83.952	-5.561
18.888	84.035	-5.562
18.896	84.122	-5.562
18.904	84.203	-5.562
18.913	84.290	-5.563
18.921	84.368	-5.563
18.929	84.458	-5.563
18.938	84.537	-5.564
18.946	84.625	-5.564
18.954	84.707	-5.564
18.963	84.791	-5.564
18.971	84.872	-5.565
18.979	84.958	-5.565
18.988	85.043	-5.565
18.996	85.123	-5.565
19.004	85.206	-5.565
19.013	85.294	-5.565
19.021	85.378	-5.565
19.029	85.458	-5.566
19.038	85.540	-5.566
19.046	85.628	-5.566
19.054	85.707	-5.566
19.063	85.792	-5.567
19.071	85.874	-5.567
19.079	85.960	-5.568
19.088	86.043	-5.568
19.096	86.130	-5.569
19.104	86.213	-5.570
19.113	86.298	-5.570
19.121	86.381	-5.571
19.129	86.465	-5.571
19.138	86.547	-5.572
19.146	86.626	-5.572
19.154	86.716	-5.572
19.163	86.794	-5.572
19.171	86.877	-5.573
19.179	86.960	-5.573
19.188	87.042	-5.573
19.196	87.127	-5.573
19.204	87.211	-5.573
19.213	87.296	-5.573
19.221	87.378	-5.574
19.229	87.462	-5.574
19.238	87.546	-5.574
19.246	87.628	-5.574
19.254	87.714	-5.574
19.263	87.798	-5.574
19.271	87.881	-5.575
19.279	87.962	-5.575
19.288	88.043	-5.575
19.296	88.129	-5.575
19.304	88.211	-5.576
19.313	88.294	-5.576
19.321	88.378	-5.576
19.329	88.460	-5.576
19.338	88.545	-5.577
19.346	88.629	-5.577
19.354	88.718	-5.577
19.363	88.800	-5.578
19.371	88.879	-5.578
19.379	88.965	-5.579
19.388	89.045	-5.579
19.396	89.130	-5.580
19.404	89.211	-5.580
19.413	89.297	-5.581
19.421	89.380	-5.582
19.429	89.465	-5.582
19.438	89.547	-5.582
19.446	89.629	-5.583
19.454	89.713	-5.583
19.463	89.794	-5.583
19.471	89.880	-5.583
19.479	89.962	-5.583
19.488	90.048	-5.584
19.496	90.131	-5.584
19.504	90.218	-5.584
19.513	90.299	-5.585
19.521	90.381	-5.585
19.529	90.462	-5.585
19.538	90.550	-5.586
19.546	90.635	-5.586
19.554	90.715	-5.587
19.563	90.798	-5.587
19.571	90.884	-5.587
19.579	90.965	-5.587
19.588	91.050	-5.587
19.596	91.135	-5.587
19.604	91.219	-5.587
19.613	91.302	-5.587
19.621	91.382	-5.588
19.629	91.468	-5.588
19.638	91.553	-5.589
19.646	91.632	-5.589
19.654	91.719	-5.590
19.663	91.806	-5.590
19.671	91.890	-5.591
19.679	91.974	-5.592
19.688	92.052	-5.592
19.696	92.128	-5.593
19.704	92.211	-5.593
19.713	92.300	-5.593
19.721	92.387	-5.593
19.729	92.468	-5.594
19.738	92.553	-5.594
19.746	92.638	-5.594
19.754	92.720	-5.594
19.763	92.804	-5.594
19.771	92.887	-5.594
19.779	92.972	-5.595
19.788	93.052	-5.595
19.796	93.135	-5.595
19.804	93.222	-5.595
19.813	93.305	-5.595
19.821	93.388	-5.595
19.829	93.474	-5.595
19.838	93.556	-5.595
19.846	93.637	-5.595
19.854	93.716	-5.596
19.863	93.803	-5.596
19.871	93.885	-5.596
19.879	93.970	-5.597
19.888	94.051	-5.597
19.896	94.137	-5.597
19.904	94.223	-5.597
19.913	94.308	-5.598
19.921	94.391	-5.598
19.929	94.473	-5.599
19.938	94.557	-5.599
19.946	94.640	-5.599
19.954	94.722	-5.599
19.963	94.805	-5.600
19.971	94.886	-5.600
19.979	94.970	-5.601
19.988	95.059	-5.601
19.996	95.103	-5.601
20.004	95.183	-5.602
20.013	95.267	-5.602
20.021	95.350	-5.602
20.029	95.433	-5.603
20.038	95.541	-5.603
20.046	95.642	-5.602
20.054	95.726	-5.603
20.063	95.809	-5.602
20.071	95.893	-5.602
20.079	95.974	-5.602
20.088	96.061	-5.602
20.096	96.143	-5.601
20.104	96.228	-5.601
20.113	96.308	-5.601
20.121	96.393	-5.601
20.129	96.474	-5.601
20.138	96.560	-5.602
20.146	96.643	-5.602
20.154	96.724	-5.602
20.163	96.806	-5.603
20.171	96.891	-5.603
20.179	96.975	-5.604
20.188	97.056	-5.604
20.196	97.144	-5.605
20.204	97.227	-5.605
20.213	97.311	-5.605
20.221	97.395	-5.606
20.229	97.478	-5.606
20.238	97.560	-5.606
20.246	97.642	-5.606
20.254	97.722	-5.607
20.263	97.809	-5.607
20.271	97.893	-5.607
20.279	97.977	-5.607
20.288	98.058	-5.607
20.296	98.147	-5.607
20.304	98.229	-5.608
20.313	98.312	-5.608
20.321	98.395	-5.608
20.329	98.476	-5.608
20.338	98.557	-5.608
20.346	98.641	-5.608
20.354	98.728	-5.609
20.363	98.808	-5.609
20.371	98.891	-5.609
20.379	98.975	-5.609
20.388	99.060	-5.609
20.396	99.141	-5.609
20.404	99.226	-5.610
20.413	99.308	-5.610
20.421	99.391	-5.611
20.429	99.474	-5.611
20.438	99.559	-5.611
20.446	99.644	-5.611
20.454	99.727	-5.611
20.463	99.810	-5.612
20.471	99.894	-5.612
20.479	99.979	-5.612
20.488	100.057	-5.613
20.496	100.145	-5.613
20.504	100.225	-5.613
20.513	100.310	-5.612
20.521	100.394	-5.613
20.529	100.476	-5.613
20.538	100.560	-5.613
20.546	100.643	-5.614
20.554	100.722	-5.614
20.563	100.806	-5.614
20.571	100.888	-5.614
20.579	100.974	-5.614
20.588	101.059	-5.615
20.596	101.139	-5.615
20.604	101.221	-5.615
20.613	101.308	-5.615
20.621	101.389	-5.615
20.629	101.474	-5.616
20.638	101.553	-5.616
20.646	101.642	-5.616
20.654	101.723	-5.617
20.663	101.809	-5.617
20.671	101.895	-5.617
20.679	101.977	-5.617
20.688	102.057	-5.617
20.696	102.139	-5.618
20.704	102.223	-5.618
20.713	102.305	-5.618
20.721	102.392	-5.618
20.729	102.473	-5.619
20.738	102.557	-5.619
20.746	102.642	-5.619
20.754	102.728	-5.619
20.763	102.809	-5.620
20.771	102.895	-5.620
20.779	102.976	-5.621
20.788	103.060	-5.621
20.796	103.143	-5.621
20.804	103.226	-5.621
20.813	103.315	-5.621
20.821	103.393	-5.621
20.829	103.479	-5.621
20.838	103.559	-5.622
20.846	103.644	-5.622
20.854	103.714	-5.622
20.863	103.808	-5.622
20.871	103.888	-5.623
20.879	103.975	-5.624
20.888	104.062	-5.625
20.896	104.139	-5.626
20.904	104.221	-5.627
20.913	104.305	-5.628
20.921	104.389	-5.629
20.929	104.475	-5.629
20.938	104.557	-5.630
20.946	104.640	-5.630
20.954	104.724	-5.630
20.963	104.811	-5.630
20.971	104.889	-5.630
20.979	104.979	-5.630
20.988	105.056	-5.630
20.996	105.145	-5.630
21.004	105.229	-5.630
21.013	105.310	-5.630
21.021	105.392	-5.630
21.029	105.475	-5.631
21.038	105.560	-5.631
21.046	105.640	-5.631
21.054	105.722	-5.632
21.063	105.813	-5.632
21.071	105.893	-5.632
21.079	105.977	-5.633
21.088	106.062	-5.633
21.096	106.144	-5.634
21.104	106.226	-5.634
21.113	106.308	-5.634
21.121	106.391	-5.635
21.129	106.477	-5.635
21.138	106.557	-5.635
21.146	106.640	-5.636
21.154	106.727	-5.636
21.163	106.808	-5.637
21.171	106.891	-5.637
21.179	106.969	-5.638
21.188	107.060	-5.638
21.196	107.143	-5.638
21.204	107.226	-5.637
21.213	107.310	-5.637
21.221	107.394	-5.636
21.229	107.478	-5.636
21.238	107.563	-5.635
21.246	107.644	-5.634
21.254	107.728	-5.634
21.263	107.810	-5.633
21.271	107.892	-5.632
21.279	107.976	-5.632
21.288	108.057	-5.633
21.296	108.150	-5.633
21.304	108.228	-5.633
21.313	108.313	-5.634
21.321	108.394	-5.634
21.329	108.477	-5.634
21.338	108.563	-5.633
21.346	108.644	-5.634
21.354	108.729	-5.634
21.363	108.806	-5.634
21.371	108.893	-5.634
21.379	108.976	-5.635
21.388	109.058	-5.635
21.396	109.141	-5.635
21.404	109.224	-5.635
21.413	109.308	-5.636
21.421	109.392	-5.636
21.429	109.478	-5.636
21.438	109.560	-5.636
21.446	109.645	-5.636
21.454	109.726	-5.637
21.463	109.805	-5.637
21.471	109.891	-5.637
21.479	109.978	-5.637
21.488	110.056	-5.638
21.496	110.146	-5.638
21.504	110.226	-5.638
21.513	110.311	-5.638
21.521	110.402	-5.639
21.529	110.475	-5.639
21.538	110.562	-5.639
21.546	110.651	-5.639
21.554	110.723	-5.639
21.563	110.814	-5.639
21.571	110.897	-5.639
21.579	110.977	-5.639
21.588	111.062	-5.640
21.596	111.142	-5.640
21.604	111.229	-5.640
21.613	111.313	-5.640
21.621	111.398	-5.640
21.629	111.477	-5.640
21.638	111.560	-5.641
21.646	111.640	-5.641
21.654	111.723	-5.641
21.663	111.811	-5.641
21.671	111.894	-5.641
21.679	111.973	-5.641
21.688	112.059	-5.641
21.696	112.144	-5.641
21.704	112.227	-5.642
21.713	112.310	-5.642
21.721	112.390	-5.642
21.729	112.478	-5.642
21.738	112.564	-5.642
21.746	112.642	-5.642
21.754	112.724	-5.642
21.763	112.809	-5.642
21.771	112.893	-5.642
21.779	112.976	-5.642
21.788	113.060	-5.642
21.796	113.141	-5.642
21.804	113.223	-5.642
21.813	113.310	-5.643
21.821	113.389	-5.643
21.829	113.474	-5.643
21.838	113.556	-5.643
21.846	113.640	-5.643
21.854	113.720	-5.643
21.863	113.805	-5.643
21.871	113.890	-5.643
21.879	113.972	-5.643
21.888	114.058	-5.644
21.896	114.140	-5.644
21.904	114.222	-5.644
21.913	114.306	-5.644
21.921	114.392	-5.644
21.929	114.473	-5.644
21.938	114.559	-5.644
21.946	114.639	-5.644
21.954	114.724	-5.643
21.963	114.808	-5.643
21.971	114.892	-5.643
21.979	114.975	-5.643
21.988	115.060	-5.643
21.996	115.145	-5.643
22.004	115.226	-5.643
22.013	115.314	-5.643
22.021	115.392	-5.643
22.029	115.477	-5.643
22.038	115.557	-5.643
22.046	115.642	-5.643
22.054	115.723	-5.643
22.063	115.807	-5.643
22.071	115.888	-5.642
22.079	115.971	-5.643
22.088	116.056	-5.642
22.096	116.142	-5.642
22.104	116.226	-5.642
22.113	116.314	-5.642
22.121	116.394	-5.642
22.129	116.475	-5.642
22.138	116.561	-5.642
22.146	116.643	-5.642
22.154	116.729	-5.642
22.163	116.812	-5.642
22.171	116.898	-5.642
22.179	116.976	-5.642
22.188	117.061	-5.642
22.196	117.144	-5.643
22.204	117.230	-5.643
22.213	117.314	-5.643
22.221	117.395	-5.643
22.229	117.477	-5.643
22.238	117.566	-5.643
22.246	117.647	-5.643
22.254	117.727	-5.644
22.263	117.812	-5.644
22.271	117.895	-5.644
22.279	117.976	-5.644
22.288	118.065	-5.644
22.296	118.144	-5.644
22.304	118.231	-5.643
22.313	118.315	-5.644
22.321	118.393	-5.644
22.329	118.477	-5.645
22.338	118.563	-5.645
22.346	118.646	-5.645
22.354	118.729	-5.645
22.363	118.813	-5.644
22.371	118.894	-5.644
22.379	118.978	-5.645
22.388	119.066	-5.644
22.396	119.149	-5.644
22.404	119.230	-5.644
22.413	119.314	-5.644
22.421	119.396	-5.644
22.429	119.479	-5.644
22.438	119.564	-5.644
22.446	119.643	-5.644
22.454	119.731	-5.643
22.463	119.813	-5.643
22.471	119.895	-5.643
22.479	119.977	-5.643
22.488	120.066	-5.643
22.496	120.149	-5.643
22.504	120.226	-5.643
22.513	120.313	-5.643
22.521	120.395	-5.643
22.529	120.478	-5.643
22.538	120.559	-5.643
22.546	120.643	-5.644
22.554	120.727	-5.644
22.563	120.809	-5.644
22.571	120.893	-5.644
22.579	120.981	-5.643
22.588	121.066	-5.643
22.596	121.147	-5.643
22.604	121.227	-5.643
22.613	121.317	-5.643
22.621	121.400	-5.643
22.629	121.483	-5.642
22.638	121.566	-5.642
22.646	121.651	-5.642
22.654	121.733	-5.642
22.663	121.816	-5.642
22.671	121.900	-5.642
22.679	121.985	-5.642
22.688	122.067	-5.642
22.696	122.150	-5.643
22.704	122.233	-5.643
22.713	122.319	-5.643
22.721	122.400	-5.643
22.729	122.481	-5.643
22.738	122.565	-5.643
22.746	122.652	-5.643
22.754	122.735	-5.643
22.763	122.822	-5.643
22.771	122.900	-5.643
22.779	122.983	-5.642
22.788	123.065	-5.642
22.796	123.149	-5.642
22.804	123.235	-5.642
22.813	123.315	-5.642
22.821	123.400	-5.642
22.829	123.484	-5.641
22.838	123.565	-5.641
22.846	123.647	-5.641
22.854	123.731	-5.641
22.863	123.818	-5.641
22.871	123.900	-5.641
22.879	123.982	-5.641
22.888	124.062	-5.641
22.896	124.145	-5.641
22.904	124.232	-5.640
22.913	124.315	-5.641
22.921	124.398	-5.641
22.929	124.480	-5.640
22.938	124.565	-5.640
22.946	124.649	-5.639
22.954	124.735	-5.639
22.963	124.817	-5.638
22.971	124.901	-5.638
22.979	124.983	-5.637
22.988	125.066	-5.637
22.996	125.152	-5.636
23.004	125.236	-5.636
23.013	125.319	-5.635
23.021	125.405	-5.635
23.029	125.484	-5.634
23.038	125.570	-5.634
23.046	125.652	-5.634
23.054	125.733	-5.634
23.063	125.818	-5.634
23.071	125.902	-5.634
23.079	125.991	-5.633
23.088	126.069	-5.633
23.096	126.148	-5.633
23.104	126.232	-5.633
23.113	126.317	-5.633
23.121	126.401	-5.632
23.129	126.487	-5.632
23.138	126.571	-5.631
23.146	126.652	-5.631
23.154	126.733	-5.630
23.163	126.819	-5.630
23.171	126.903	-5.630
23.179	126.987	-5.630
23.188	127.069	-5.629
23.196	127.147	-5.629
23.204	127.236	-5.628
23.213	127.318	-5.627
23.221	127.401	-5.627
23.229	127.483	-5.626
23.238	127.566	-5.625
23.246	127.652	-5.624
23.254	127.734	-5.623
23.263	127.819	-5.623
23.271	127.901	-5.622
23.279	127.987	-5.621
23.288	128.071	-5.621
23.296	128.158	-5.621
23.304	128.239	-5.621
23.313	128.326	-5.621
23.321	128.409	-5.620
23.329	128.490	-5.620
23.338	128.576	-5.620
23.346	128.660	-5.619
23.354	128.740	-5.619
23.363	128.822	-5.619
23.371	128.906	-5.618
23.379	128.991	-5.618
23.388	129.073	-5.617
23.396	129.157	-5.617
23.404	129.243	-5.616
23.413	129.323	-5.616
23.421	129.405	-5.616
23.429	129.490	-5.616
23.438	129.576	-5.616
23.446	129.656	-5.615
23.454	129.738	-5.615
23.463	129.823	-5.614
23.471	129.907	-5.614
23.479	129.995	-5.614
23.488	130.079	-5.614
23.496	130.160	-5.613
23.504	130.245	-5.613
23.513	130.327	-5.613
23.521	130.409	-5.612
23.529	130.493	-5.612
23.538	130.573	-5.612
23.546	130.661	-5.611
23.554	130.746	-5.611
23.563	130.828	-5.610
23.571	130.911	-5.610
23.579	130.993	-5.609
23.588	131.074	-5.609
23.596	131.157	-5.608
23.604	131.240	-5.608
23.613	131.322	-5.608
23.621	131.404	-5.608
23.629	131.493	-5.607
23.638	131.575	-5.608
23.646	131.663	-5.608
23.654	131.741	-5.608
23.663	131.826	-5.608
23.671	131.909	-5.608
23.679	131.994	-5.608
23.688	132.075	-5.608
23.696	132.161	-5.608
23.704	132.245	-5.608
23.713	132.329	-5.608
23.721	132.413	-5.608
23.729	132.495	-5.608
23.738	132.573	-5.608
23.746	132.658	-5.608
23.754	132.743	-5.608
23.763	132.827	-5.608
23.771	132.907	-5.608
23.779	132.991	-5.608
23.788	133.077	-5.608
23.796	133.160	-5.608
23.804	133.246	-5.607
23.813	133.326	-5.607
23.821	133.411	-5.607
23.829	133.498	-5.608
23.838	133.578	-5.607
23.846	133.663	-5.607
23.854	133.750	-5.607
23.863	133.828	-5.607
23.871	133.913	-5.607
23.879	133.996	-5.607
23.888	134.079	-5.608
23.896	134.157	-5.608
23.904	134.244	-5.607
23.913	134.327	-5.607
23.921	134.409	-5.607
23.929	134.497	-5.606
23.938	134.574	-5.606
23.946	134.659	-5.606
23.954	134.746	-5.606
23.963	134.828	-5.605
23.971	134.913	-5.605
23.979	134.995	-5.605
23.988	135.080	-5.604
23.996	135.159	-5.604
24.004	135.244	-5.604
24.013	135.328	-5.604
24.021	135.411	-5.603
24.029	135.495	-5.603
24.038	135.576	-5.603
24.046	135.662	-5.603
24.054	135.747	-5.603
24.063	135.829	-5.602
24.071	135.910	-5.602
24.079	135.996	-5.602
24.088	136.079	-5.602
24.096	136.163	-5.603
24.104	136.247	-5.603
24.113	136.329	-5.603
24.121	136.413	-5.603
24.129	136.495	-5.603
24.138	136.576	-5.603
24.146	136.664	-5.603
24.154	136.745	-5.603
24.163	136.827	-5.603
24.171	136.912	-5.602
24.179	136.993	-5.602
24.188	137.077	-5.602
24.196	137.159	-5.602
24.204	137.241	-5.602
24.213	137.327	-5.602
24.221	137.409	-5.603
24.229	137.495	-5.603
24.238	137.577	-5.604
24.246	137.663	-5.604
24.254	137.745	-5.604
24.263	137.826	-5.605
24.271	137.913	-5.605
24.279	137.999	-5.605
24.288	138.080	-5.606
24.296	138.161	-5.606
24.304	138.250	-5.606
24.313	138.331	-5.607
24.321	138.416	-5.607
24.329	138.494	-5.607
24.338	138.579	-5.608
24.346	138.662	-5.608
24.354	138.750	-5.608
24.363	138.830	-5.609
24.371	138.916	-5.609
24.379	139.000	-5.609
24.388	139.080	-5.610
24.396	139.164	-5.610
24.404	139.247	-5.611
24.413	139.330	-5.611
24.421	139.413	-5.612
24.429	139.498	-5.613
24.438	139.581	-5.613
24.446	139.662	-5.614
24.454	139.749	-5.615
24.463	139.830	-5.615
24.471	139.914	-5.616
24.479	139.993	-5.617
24.488	140.081	-5.617
24.496	140.164	-5.617
24.504	140.248	-5.617
24.513	140.329	-5.618
24.521	140.414	-5.618
24.529	140.496	-5.619
24.538	140.580	-5.619
24.546	140.663	-5.620
24.554	140.748	-5.621
24.563	140.826	-5.621
24.571	140.911	-5.621
24.579	140.997	-5.622
24.588	141.082	-5.622
24.596	141.166	-5.623
24.604	141.243	-5.623
24.613	141.332	-5.623
24.621	141.413	-5.624
24.629	141.496	-5.624
24.638	141.581	-5.624
24.646	141.666	-5.624
24.654	141.748	-5.625
24.663	141.831	-5.626
24.671	141.916	-5.626
24.679	141.998	-5.627
24.688	142.080	-5.627
24.696	142.160	-5.628
24.704	142.247	-5.628
24.713	142.331	-5.629
24.721	142.419	-5.629
24.729	142.499	-5.630
24.738	142.582	-5.630
24.746	142.666	-5.631
24.754	142.751	-5.631
24.763	142.834	-5.632
24.771	142.921	-5.632
24.779	143.004	-5.633
24.788	143.087	-5.633
24.796	143.168	-5.634
24.804	143.251	-5.634
24.813	143.334	-5.634
24.821	143.416	-5.635
24.829	143.503	-5.635
24.838	143.584	-5.636
24.846	143.668	-5.637
24.854	143.746	-5.637
24.863	143.833	-5.638
24.871	143.916	-5.637
24.879	144.003	-5.638
24.888	144.082	-5.638
24.896	144.165	-5.639
24.904	144.249	-5.639
24.913	144.332	-5.640
24.921	144.416	-5.640
24.929	144.500	-5.640
24.938	144.585	-5.640
24.946	144.665	-5.640
24.954	144.751	-5.641
24.963	144.827	-5.641
24.971	144.912	-5.641
24.979	145.001	-5.641
24.988	145.083	-5.641
24.996	145.168	-5.641
25.004	145.250	-5.641
25.013	145.332	-5.641
25.021	145.414	-5.642
25.029	145.500	-5.642
25.038	145.585	-5.642
25.046	145.666	-5.642
25.054	145.752	-5.643
25.063	145.829	-5.644
25.071	145.915	-5.644
25.079	146.001	-5.644
25.088	146.083	-5.645
25.096	146.165	-5.645
25.104	146.254	-5.646
25.113	146.337	-5.646
25.121	146.420	-5.646
25.129	146.498	-5.646
25.138	146.584	-5.646
25.146	146.667	-5.646
25.154	146.747	-5.646
25.163	146.832	-5.646
25.171	146.917	-5.646
25.179	147.000	-5.646
25.188	147.085	-5.645
25.196	147.169	-5.645
25.204	147.247	-5.646
25.213	147.338	-5.646
25.221	147.421	-5.646
25.229	147.505	-5.646
25.238	147.588	-5.646
25.246	147.670	-5.646
25.254	147.752	-5.646
25.263	147.834	-5.647
25.271	147.919	-5.647
25.279	148.005	-5.647
25.288	148.085	-5.647
25.296	148.165	-5.647
25.304	148.251	-5.648
25.313	148.333	-5.648
25.321	148.419	-5.648
25.329	148.498	-5.648
25.338	148.583	-5.648
25.346	148.666	-5.648
25.354	148.753	-5.648
25.363	148.830	-5.648
25.371	148.916	-5.648
25.379	149.001	-5.648
25.388	149.084	-5.649
25.396	149.172	-5.649
25.404	149.255	-5.649
25.413	149.330	-5.650
25.421	149.415	-5.650
25.429	149.501	-5.650
25.438	149.588	-5.650
25.446	149.669	-5.651
25.454	149.748	-5.651
25.463	149.837	-5.651
25.471	149.923	-5.651
25.479	150.001	-5.651
25.488	150.088	-5.651
25.496	150.166	-5.651
25.504	150.253	-5.651
25.513	150.337	-5.651
25.521	150.417	-5.650
25.529	150.500	-5.650
25.538	150.589	-5.650
25.546	150.672	-5.649
25.554	150.756	-5.650
25.563	150.839	-5.650
25.571	150.919	-5.650
25.579	151.002	-5.649
25.588	151.087	-5.650
25.596	151.169	-5.649
25.604	151.254	-5.649
25.613	151.338	-5.649
25.621	151.420	-5.649
25.629	151.506	-5.648
25.638	151.588	-5.648
25.646	151.674	-5.647
25.654	151.757	-5.647
25.663	151.840	-5.647
25.671	151.924	-5.647
25.679	152.009	-5.647
25.688	152.091	-5.647
25.696	152.171	-5.647
25.704	152.257	-5.647
25.713	152.343	-5.647
25.721	152.424	-5.648
25.729	152.504	-5.648
25.738	152.590	-5.648
25.746	152.671	-5.648
25.754	152.761	-5.648
25.763	152.843	-5.648
25.771	152.923	-5.648
25.779	153.006	-5.648
25.788	153.089	-5.649
25.796	153.172	-5.648
25.804	153.253	-5.648
25.813	153.342	-5.648
25.821	153.425	-5.648
25.829	153.512	-5.648
25.838	153.594	-5.647
25.846	153.676	-5.647
25.854	153.759	-5.647
25.863	153.839	-5.647
25.871	153.922	-5.646
25.879	154.006	-5.646
25.888	154.090	-5.646
25.896	154.171	-5.646
25.904	154.256	-5.646
25.913	154.341	-5.646
25.921	154.426	-5.646
25.929	154.509	-5.646
25.938	154.589	-5.646
25.946	154.676	-5.646
25.954	154.756	-5.646
25.963	154.841	-5.646
25.971	154.927	-5.646
25.979	155.007	-5.646
25.988	155.087	-5.647
25.996	155.174	-5.647
26.004	155.259	-5.646
26.013	155.341	-5.647
26.021	155.425	-5.647
26.029	155.505	-5.647
26.038	155.591	-5.646
26.046	155.675	-5.646
26.054	155.756	-5.646
26.063	155.839	-5.646
26.071	155.921	-5.645
26.079	156.009	-5.645
26.088	156.090	-5.645
26.096	156.177	-5.644
26.104	156.260	-5.644
26.113	156.342	-5.644
26.121	156.423	-5.644
26.129	156.508	-5.644
26.138	156.595	-5.643
26.146	156.676	-5.643
26.154	156.760	-5.643
26.163	156.843	-5.643
26.171	156.927	-5.643
26.179	157.010	-5.643
26.188	157.094	-5.643
26.196	157.177	-5.643
26.204	157.260	-5.643
26.213	157.341	-5.642
26.221	157.428	-5.642
26.229	157.511	-5.642
26.238	157.590	-5.641
26.246	157.672	-5.641
26.254	157.757	-5.641
26.263	157.840	-5.641
26.271	157.923	-5.641
26.279	158.007	-5.641
26.288	158.091	-5.641
26.296	158.178	-5.641
26.304	158.258	-5.641
26.313	158.341	-5.641
26.321	158.423	-5.642
26.329	158.505	-5.642
26.338	158.592	-5.642
26.346	158.678	-5.641
26.354	158.761	-5.641
26.363	158.843	-5.641
26.371	158.921	-5.642
26.379	159.010	-5.642
26.388	159.092	-5.642
26.396	159.173	-5.642
26.404	159.258	-5.642
26.413	159.340	-5.642
26.421	159.426	-5.642
26.429	159.507	-5.642
26.438	159.592	-5.641
26.446	159.676	-5.641
26.454	159.762	-5.641
26.463	159.846	-5.641
26.471	159.926	-5.640
26.479	160.008	-5.640
26.488	160.090	-5.640
26.496	160.175	-5.640
26.504	160.262	-5.640
26.513	160.343	-5.640
26.521	160.427	-5.640
26.529	160.510	-5.639
26.538	160.595	-5.639
26.546	160.680	-5.639
26.554	160.760	-5.639
26.563	160.843	-5.639
26.571	160.928	-5.639
26.579	161.010	-5.640
26.588	161.093	-5.640
26.596	161.173	-5.639
26.604	161.261	-5.640
26.613	161.340	-5.640
26.621	161.429	-5.639
26.629	161.511	-5.639
26.638	161.592	-5.639
26.646	161.674	-5.639
26.654	161.757	-5.639
26.663	161.839	-5.639
26.671	161.924	-5.639
26.679	162.009	-5.639
26.688	162.088	-5.639
26.696	162.173	-5.639
26.704	162.254	-5.639
26.713	162.339	-5.638
26.721	162.421	-5.638
26.729	162.506	-5.638
26.738	162.590	-5.637
26.746	162.675	-5.637
26.754	162.759	-5.636
26.763	162.845	-5.636
26.771	162.927	-5.635
26.779	163.011	-5.634
26.788	163.094	-5.634
26.796	163.178	-5.634
26.804	163.258	-5.634
26.813	163.347	-5.633
26.821	163.426	-5.633
26.829	163.507	-5.633
26.838	163.593	-5.633
26.846	163.676	-5.633
26.854	163.757	-5.633
26.863	163.843	-5.633
26.871	163.931	-5.633
26.879	164.008	-5.632
26.888	164.101	-5.632
26.896	164.184	-5.632
26.904	164.263	-5.632
26.913	164.349	-5.632
26.921	164.432	-5.632
26.929	164.516	-5.632
26.938	164.601	-5.631
26.946	164.681	-5.631
26.954	164.766	-5.631
26.963	164.850	-5.631
26.971	164.931	-5.631
26.979	165.013	-5.631
26.988	165.096	-5.630
26.996	165.178	-5.630
27.004	165.262	-5.630
27.013	165.342	-5.630
27.021	165.429	-5.629
27.029	165.512	-5.629
27.038	165.596	-5.629
27.046	165.681	-5.629
27.054	165.766	-5.628
27.063	165.848	-5.628
27.071	165.930	-5.628
27.079	166.015	-5.628
27.088	166.101	-5.628
27.096	166.183	-5.628
27.104	166.266	-5.628
27.113	166.348	-5.628
27.121	166.431	-5.628
27.129	166.519	-5.627
27.138	166.600	-5.627
27.146	166.683	-5.627
27.154	166.764	-5.626
27.163	166.845	-5.625
27.171	166.931	-5.625
27.179	167.016	-5.625
27.188	167.100	-5.625
27.196	167.185	-5.625
27.204	167.269	-5.625
27.213	167.348	-5.625
27.221	167.436	-5.625
27.229	167.516	-5.625
27.238	167.600	-5.625
27.246	167.686	-5.625
27.254	167.771	-5.625
27.263	167.856	-5.625
27.271	167.938	-5.625
27.279	168.018	-5.625
27.288	168.102	-5.624
27.296	168.183	-5.624
27.304	168.265	-5.624
27.313	168.344	-5.624
27.321	168.426	-5.624
27.329	168.509	-5.624
27.338	168.591	-5.624
27.346	168.682	-5.623
27.354	168.769	-5.623
27.363	168.852	-5.622
27.371	168.936	-5.622
27.379	169.018	-5.622
27.388	169.105	-5.621
27.396	169.184	-5.621
27.404	169.267	-5.620
27.413	169.350	-5.619
27.421	169.434	-5.619
27.429	169.517	-5.619
27.438	169.599	-5.619
27.446	169.685	-5.619
27.454	169.769	-5.619
27.463	169.855	-5.618
27.471	169.935	-5.618
27.479	170.016	-5.618
27.488	170.103	-5.618
27.496	170.184	-5.618
27.504	170.269	-5.618
27.513	170.353	-5.618
27.521	170.439	-5.618
27.529	170.522	-5.617
27.538	170.603	-5.617
27.546	170.689	-5.617
27.554	170.769	-5.617
27.563	170.856	-5.617
27.571	170.938	-5.617
27.579	171.020	-5.616
27.588	171.103	-5.616
27.596	171.184	-5.616
27.604	171.270	-5.616
27.613	171.353	-5.615
27.621	171.434	-5.615
27.629	171.521	-5.615
27.638	171.604	-5.615
27.646	171.686	-5.615
27.654	171.773	-5.614
27.663	171.852	-5.614
27.671	171.936	-5.614
27.679	172.017	-5.614
27.688	172.103	-5.613
27.696	172.184	-5.613
27.704	172.269	-5.613
27.713	172.351	-5.613
27.721	172.437	-5.613
27.729	172.518	-5.612
27.738	172.608	-5.612
27.746	172.687	-5.613
27.754	172.768	-5.612
27.763	172.854	-5.612
27.771	172.935	-5.613
27.779	173.024	-5.612
27.788	173.105	-5.612
27.796	173.192	-5.612
27.804	173.272	-5.611
27.813	173.357	-5.611
27.821	173.439	-5.611
27.829	173.521	-5.610
27.838	173.608	-5.610
27.846	173.688	-5.610
27.854	173.769	-5.609
27.863	173.856	-5.609
27.871	173.938	-5.609
27.879	174.024	-5.609
27.888	174.106	-5.608
27.896	174.190	-5.608
27.904	174.274	-5.608
27.913	174.355	-5.608
27.921	174.439	-5.608
27.929	174.526	-5.608
27.938	174.610	-5.608
27.946	174.693	-5.608
27.954	174.775	-5.608
27.963	174.856	-5.608
27.971	174.940	-5.607
27.979	175.025	-5.608
27.988	175.112	-5.608
27.996	175.193	-5.607
28.004	175.275	-5.607
28.013	175.358	-5.606
28.021	175.440	-5.606
28.029	175.526	-5.605
28.038	175.609	-5.605
28.046	175.695	-5.605
28.054	175.775	-5.605
28.063	175.858	-5.605
28.071	175.945	-5.604
28.079	176.029	-5.604
28.088	176.111	-5.604
28.096	176.195	-5.604
28.104	176.280	-5.603
28.113	176.362	-5.603
28.121	176.448	-5.603
28.129	176.529	-5.603
28.138	176.611	-5.603
28.146	176.695	-5.603
28.154	176.779	-5.602
28.163	176.861	-5.602
28.171	176.945	-5.602
28.179	177.026	-5.602
28.188	177.111	-5.601
28.196	177.193	-5.601
28.204	177.276	-5.601
28.213	177.360	-5.601
28.221	177.447	-5.600
28.229	177.526	-5.600
28.238	177.615	-5.600
28.246	177.696	-5.600
28.254	177.780	-5.601
28.263	177.865	-5.601
28.271	177.947	-5.601
28.279	178.032	-5.601
28.288	178.113	-5.601
28.296	178.199	-5.602
28.304	178.281	-5.602
28.313	178.362	-5.602
28.321	178.448	-5.602
28.329	178.532	-5.602
28.338	178.614	-5.602
28.346	178.695	-5.602
28.354	178.781	-5.602
28.363	178.865	-5.601
28.371	178.946	-5.602
28.379	179.030	-5.602
28.388	179.113	-5.601
28.396	179.199	-5.601
28.404	179.280	-5.601
28.413	179.362	-5.602
28.421	179.445	-5.602
28.429	179.529	-5.601
28.438	179.614	-5.601
28.446	179.702	-5.601
28.454	179.780	-5.601
28.463	179.863	-5.600
28.471	179.946	-5.599
28.479	180.034	-5.599
28.488	180.115	-5.598
28.496	180.200	-5.598
28.504	180.281	-5.598
28.513	180.365	-5.597
28.521	180.442	-5.597
28.529	180.528	-5.598
28.538	180.608	-5.598
28.546	180.697	-5.599
28.554	180.779	-5.600
28.563	180.867	-5.600
28.571	180.946	-5.601
28.579	181.033	-5.601
28.588	181.115	-5.601
28.596	181.204	-5.601
28.604	181.284	-5.601
28.613	181.365	-5.601
28.621	181.449	-5.601
28.629	181.534	-5.600
28.638	181.619	-5.600
28.646	181.701	-5.600
28.654	181.787	-5.600
28.663	181.868	-5.599
28.671	181.948	-5.599
28.679	182.031	-5.598
28.688	182.114	-5.598
28.696	182.200	-5.598
28.704	182.282	-5.597
28.713	182.369	-5.597
28.721	182.449	-5.597
28.729	182.533	-5.597
28.738	182.617	-5.596
28.746	182.705	-5.597
28.754	182.781	-5.597
28.763	182.871	-5.597
28.771	182.951	-5.597
28.779	183.038	-5.597
28.788	183.122	-5.597
28.796	183.199	-5.597
28.804	183.285	-5.598
28.813	183.368	-5.598
28.821	183.453	-5.598
28.829	183.534	-5.598
28.838	183.621	-5.598
28.846	183.705	-5.598
28.854	183.787	-5.597
28.863	183.871	-5.597
28.871	183.958	-5.597
28.879	184.038	-5.597
28.888	184.123	-5.597
28.896	184.204	-5.597
28.904	184.292	-5.597
28.913	184.373	-5.596
28.921	184.454	-5.596
28.929	184.540	-5.596
28.938	184.623	-5.596
28.946	184.705	-5.596
28.954	184.788	-5.596
28.963	184.873	-5.596
28.971	184.956	-5.596
28.979	185.040	-5.596
28.988	185.126	-5.596
28.996	185.205	-5.596
29.004	185.291	-5.596
29.013	185.376	-5.595
29.021	185.459	-5.595
29.029	185.548	-5.594
29.038	185.624	-5.594
29.046	185.713	-5.594
29.054	185.796	-5.594
29.063	185.876	-5.593
29.071	185.961	-5.593
29.079	186.039	-5.593
29.088	186.126	-5.593
29.096	186.213	-5.593
29.104	186.295	-5.592
29.113	186.380	-5.592
29.121	186.464	-5.593
29.129	186.548	-5.593
29.138	186.633	-5.593
29.146	186.715	-5.593
29.154	186.799	-5.593
29.163	186.880	-5.593
29.171	186.968	-5.592
29.179	187.047	-5.593
29.188	187.132	-5.593
29.196	187.214	-5.592
29.204	187.298	-5.592
29.213	187.381	-5.592
29.221	187.465	-5.592
29.229	187.546	-5.592
29.238	187.632	-5.592
29.246	187.714	-5.592
29.254	187.800	-5.592
29.263	187.885	-5.592
29.271	187.966	-5.592
29.279	188.051	-5.592
29.288	188.137	-5.592
29.296	188.218	-5.592
29.304	188.298	-5.592
29.313	188.382	-5.592
29.321	188.466	-5.593
29.329	188.546	-5.593
29.338	188.633	-5.592
29.346	188.717	-5.593
29.354	188.800	-5.593
29.363	188.873	-5.593
29.371	188.964	-5.594
29.379	189.049	-5.594
29.388	189.133	-5.594
29.396	189.214	-5.593
29.404	189.299	-5.593
29.413	189.382	-5.594
29.421	189.465	-5.594
29.429	189.546	-5.593
29.438	189.629	-5.593
29.446	189.717	-5.592
29.454	189.800	-5.592
29.463	189.883	-5.592
29.471	189.967	-5.592
29.479	190.048	-5.592
29.488	190.132	-5.592
29.496	190.211	-5.592
29.504	190.302	-5.592
29.513	190.385	-5.592
29.521	190.470	-5.591
29.529	190.553	-5.591
29.538	190.629	-5.591
29.546	190.714	-5.591
29.554	190.801	-5.591
29.563	190.886	-5.591
29.571	190.972	-5.591
29.579	191.056	-5.591
29.588	191.136	-5.591
29.596	191.220	-5.591
29.604	191.303	-5.592
29.613	191.389	-5.592
29.621	191.470	-5.592
29.629	191.551	-5.592
29.638	191.638	-5.592
29.646	191.721	-5.592
29.654	191.803	-5.591
29.663	191.885	-5.591
29.671	191.972	-5.590
29.679	192.059	-5.590
29.688	192.140	-5.590
29.696	192.222	-5.590
29.704	192.304	-5.590
29.713	192.388	-5.590
29.721	192.470	-5.590
29.729	192.558	-5.590
29.738	192.636	-5.591
29.746	192.722	-5.591
29.754	192.806	-5.591
29.763	192.890	-5.591
29.771	192.975	-5.591
29.779	193.056	-5.591
29.788	193.138	-5.591
29.796	193.223	-5.591
29.804	193.306	-5.591
29.813	193.390	-5.591
29.821	193.472	-5.591
29.829	193.553	-5.590
29.838	193.636	-5.590
29.846	193.721	-5.590
29.854	193.801	-5.589
29.863	193.889	-5.589
29.871	193.970	-5.588
29.879	194.055	-5.588
29.888	194.139	-5.588
29.896	194.221	-5.587
29.904	194.303	-5.587
29.913	194.383	-5.587
29.921	194.464	-5.587
29.929	194.551	-5.586
29.938	194.633	-5.586
29.946	194.714	-5.586
29.954	194.795	-5.586
29.963	194.877	-5.585
29.971	194.966	-5.585
29.979	195.046	-5.585
29.988	195.130	-5.585
29.996	195.213	-5.584
30.004	195.296	-5.583
30.013	195.379	-5.583
30.021	195.465	-5.582
30.029	195.555	-5.582
30.038	195.639	-5.582
30.046	195.723	-5.582
30.054	195.804	-5.582
30.063	195.890	-5.582
30.071	195.974	-5.582
30.079	196.057	-5.581
30.088	196.141	-5.581
30.096	196.222	-5.582
30.104	196.305	-5.582
30.113	196.393	-5.581
30.121	196.473	-5.581
30.129	196.556	-5.581
30.138	196.639	-5.581
30.146	196.721	-5.581
30.154	196.807	-5.581
30.163	196.894	-5.581
30.171	196.975	-5.581
30.179	197.059	-5.580
30.188	197.141	-5.580
30.196	197.221	-5.580
30.204	197.302	-5.579
30.213	197.390	-5.579
30.221	197.474	-5.579
30.229	197.559	-5.578
30.238	197.644	-5.578
30.246	197.726	-5.578
30.254	197.810	-5.578
30.263	197.893	-5.578
30.271	197.979	-5.578
30.279	198.063	-5.578
30.288	198.144	-5.577
30.296	198.226	-5.577
30.304	198.310	-5.577
30.313	198.393	-5.577
30.321	198.477	-5.576
30.329	198.556	-5.575
30.338	198.644	-5.575
30.346	198.727	-5.574
30.354	198.812	-5.574
30.363	198.894	-5.574
30.371	198.981	-5.574
30.379	199.062	-5.573
30.388	199.146	-5.573
30.396	199.232	-5.573
30.404	199.313	-5.573
30.413	199.400	-5.573
30.421	199.480	-5.574
30.429	199.564	-5.574
30.438	199.645	-5.573
30.446	199.730	-5.573
30.454	199.811	-5.573
30.463	199.896	-5.573
30.471	199.976	-5.573
30.479	200.065	-5.573
30.488	200.144	-5.573
30.496	200.225	-5.572
30.504	200.313	-5.572
30.513	200.395	-5.572
30.521	200.479	-5.572
30.529	200.561	-5.571
30.538	200.647	-5.571
30.546	200.729	-5.571
30.554	200.813	-5.570
30.563	200.893	-5.570
30.571	200.977	-5.570
30.579	201.060	-5.570
30.588	201.147	-5.570
30.596	201.229	-5.569
30.604	201.315	-5.569
30.613	201.397	-5.569
30.621	201.480	-5.569
30.629	201.564	-5.569
30.638	201.646	-5.568
30.646	201.728	-5.567
30.654	201.811	-5.567
30.663	201.897	-5.567
30.671	201.979	-5.567
30.679	202.062	-5.567
30.688	202.150	-5.567
30.696	202.231	-5.568
30.704	202.315	-5.567
30.713	202.398	-5.567
30.721	202.481	-5.567
30.729	202.564	-5.567
30.738	202.642	-5.567
30.746	202.735	-5.567
30.754	202.814	-5.567
30.763	202.899	-5.567
30.771	202.981	-5.566
30.779	203.063	-5.566
30.788	203.145	-5.566
30.796	203.234	-5.565
30.804	203.319	-5.566
30.813	203.401	-5.566
30.821	203.484	-5.566
30.829	203.567	-5.566
30.838	203.651	-5.565
30.846	203.735	-5.566
30.854	203.815	-5.566
30.863	203.901	-5.566
30.871	203.985	-5.566
30.879	204.067	-5.567
30.888	204.151	-5.567
30.896	204.234	-5.567
30.904	204.318	-5.567
30.913	204.400	-5.567
30.921	204.482	-5.567
30.929	204.565	-5.567
30.938	204.649	-5.567
30.946	204.732	-5.567
30.954	204.815	-5.566
30.963	204.899	-5.566
30.971	204.981	-5.566
30.979	205.068	-5.566
30.988	205.152	-5.566
30.996	205.238	-5.566
31.004	205.318	-5.566
31.013	205.403	-5.566
31.021	205.484	-5.565
31.029	205.568	-5.565
31.038	205.651	-5.565
31.046	205.734	-5.565
31.054	205.814	-5.565
31.063	205.899	-5.565
31.071	205.985	-5.564
31.079	206.068	-5.564
31.088	206.154	-5.563
31.096	206.237	-5.564
31.104	206.320	-5.564
31.113	206.405	-5.564
31.121	206.488	-5.564
31.129	206.571	-5.563
31.138	206.653	-5.563
31.146	206.736	-5.563
31.154	206.820	-5.563
31.163	206.904	-5.562
31.171	206.988	-5.562
31.179	207.069	-5.562
31.188	207.155	-5.562
31.196	207.238	-5.562
31.204	207.319	-5.562
31.213	207.402	-5.562
31.221	207.484	-5.561
31.229	207.567	-5.561
31.238	207.652	-5.561
31.246	207.736	-5.561
31.254	207.817	-5.561
31.263	207.906	-5.561
31.271	207.990	-5.560
31.279	208.064	-5.560
31.288	208.154	-5.559
31.296	208.241	-5.559
31.304	208.319	-5.558
31.313	208.405	-5.558
31.321	208.487	-5.557
31.329	208.570	-5.557
31.338	208.657	-5.557
31.346	208.738	-5.556
31.354	208.821	-5.556
31.363	208.905	-5.556
31.371	208.989	-5.556
31.379	209.071	-5.557
31.388	209.156	-5.557
31.396	209.236	-5.557
31.404	209.319	-5.557
31.413	209.405	-5.557
31.421	209.488	-5.557
31.429	209.570	-5.557
31.438	209.659	-5.557
31.446	209.738	-5.557
31.454	209.818	-5.556
31.463	209.906	-5.556
31.471	209.992	-5.555
31.479	210.073	-5.555
31.488	210.157	-5.554
31.496	210.240	-5.554
31.504	210.324	-5.554
31.513	210.408	-5.554
31.521	210.488	-5.554
31.529	210.571	-5.554
31.538	210.655	-5.554
31.546	210.739	-5.554
31.554	210.819	-5.554
31.563	210.905	-5.553
31.571	210.989	-5.553
31.579	211.072	-5.552
31.588	211.156	-5.552
31.596	211.240	-5.552
31.604	211.324	-5.551
31.613	211.406	-5.551
31.621	211.490	-5.551
31.629	211.571	-5.551
31.638	211.660	-5.551
31.646	211.739	-5.551
31.654	211.826	-5.551
31.663	211.907	-5.551
31.671	211.992	-5.551
31.679	212.073	-5.550
31.688	212.159	-5.550
31.696	212.244	-5.550
31.704	212.326	-5.550
31.713	212.407	-5.549
31.721	212.485	-5.549
31.729	212.573	-5.548
31.738	212.657	-5.547
31.746	212.742	-5.547
31.754	212.825	-5.547
31.763	212.908	-5.547
31.771	212.994	-5.546
31.779	213.075	-5.546
31.788	213.162	-5.545
31.796	213.243	-5.545
31.804	213.329	-5.545
31.813	213.410	-5.545
31.821	213.496	-5.546
31.829	213.579	-5.545
31.838	213.663	-5.545
31.846	213.744	-5.545
31.854	213.827	-5.545
31.863	213.911	-5.545
31.871	213.995	-5.546
31.879	214.078	-5.546
31.888	214.160	-5.546
31.896	214.244	-5.546
31.904	214.329	-5.546
31.913	214.410	-5.546
31.921	214.497	-5.546
31.929	214.578	-5.547
31.938	214.660	-5.547
31.946	214.745	-5.547
31.954	214.829	-5.547
31.963	214.906	-5.547
31.971	214.996	-5.547
31.979	215.079	-5.547
31.988	215.162	-5.546
31.996	215.242	-5.546
32.004	215.329	-5.545
32.013	215.414	-5.545
32.021	215.497	-5.544
32.029	215.584	-5.543
32.038	215.664	-5.542
32.046	215.747	-5.542
32.054	215.834	-5.541
32.063	215.914	-5.541
32.071	215.999	-5.540
32.079	216.084	-5.539
32.088	216.166	-5.539
32.096	216.246	-5.538
32.104	216.333	-5.538
32.113	216.415	-5.538
32.121	216.500	-5.538
32.129	216.581	-5.538
32.138	216.666	-5.538
32.146	216.750	-5.537
32.154	216.834	-5.537
32.163	216.917	-5.537
32.171	217.000	-5.537
32.179	217.085	-5.537
32.188	217.172	-5.537
32.196	217.253	-5.537
32.204	217.334	-5.536
32.213	217.418	-5.537
32.221	217.500	-5.537
32.229	217.584	-5.536
32.238	217.669	-5.536
32.246	217.753	-5.536
32.254	217.836	-5.536
32.263	217.921	-5.536
32.271	218.008	-5.536
32.279	218.089	-5.535
32.288	218.169	-5.535
32.296	218.251	-5.535
32.304	218.335	-5.535
32.313	218.423	-5.536
32.321	218.503	-5.536
32.329	218.585	-5.537
32.338	218.668	-5.537
32.346	218.752	-5.538
32.354	218.836	-5.539
32.363	218.920	-5.540
32.371	219.001	-5.541
32.379	219.089	-5.541
32.388	219.171	-5.541
32.396	219.249	-5.542
32.404	219.338	-5.542
32.413	219.420	-5.542
32.421	219.505	-5.542
32.429	219.586	-5.542
32.438	219.672	-5.542
32.446	219.753	-5.542
32.454	219.838	-5.541
32.463	219.922	-5.541
32.471	220.004	-5.541
32.479	220.089	-5.541
32.488	220.169	-5.541
32.496	220.253	-5.541
32.504	220.339	-5.542
32.513	220.420	-5.542
32.521	220.503	-5.542
32.529	220.584	-5.542
32.538	220.673	-5.543
32.546	220.755	-5.543
32.554	220.839	-5.543
32.563	220.918	-5.543
32.571	221.001	-5.543
32.579	221.087	-5.542
32.588	221.170	-5.542
32.596	221.255	-5.542
32.604	221.335	-5.541
32.613	221.422	-5.541
32.621	221.502	-5.540
32.629	221.587	-5.540
32.638	221.674	-5.539
32.646	221.757	-5.539
32.654	221.841	-5.539
32.663	221.926	-5.539
32.671	222.004	-5.539
32.679	222.089	-5.538
32.688	222.174	-5.538
32.696	222.256	-5.537
32.704	222.338	-5.537
32.713	222.422	-5.537
32.721	222.506	-5.538
32.729	222.588	-5.538
32.738	222.671	-5.538
32.746	222.753	-5.538
32.754	222.839	-5.538
32.763	222.923	-5.538
32.771	223.003	-5.538
32.779	223.089	-5.539
32.788	223.174	-5.539
32.796	223.257	-5.539
32.804	223.338	-5.539
32.813	223.425	-5.539
32.821	223.509	-5.539
32.829	223.591	-5.539
32.838	223.673	-5.539
32.846	223.762	-5.539
32.854	223.842	-5.539
32.863	223.926	-5.539
32.871	224.014	-5.539
32.879	224.093	-5.539
32.888	224.178	-5.539
32.896	224.263	-5.539
32.904	224.344	-5.539
32.913	224.426	-5.539
32.921	224.503	-5.540
32.929	224.597	-5.540
32.938	224.671	-5.541
32.946	224.761	-5.541
32.954	224.845	-5.541
32.963	224.924	-5.542
32.971	225.007	-5.543
32.979	225.092	-5.543
32.988	225.175	-5.543
32.996	225.259	-5.544
33.004	225.346	-5.544
33.013	225.429	-5.544
33.021	225.512	-5.544
33.029	225.596	-5.545
33.038	225.676	-5.545
33.046	225.762	-5.546
33.054	225.844	-5.546
33.063	225.924	-5.547
33.071	226.009	-5.548
33.079	226.093	-5.548
33.088	226.177	-5.549
33.096	226.263	-5.550
33.104	226.344	-5.550
33.113	226.425	-5.551
33.121	226.512	-5.551
33.129	226.592	-5.552
33.138	226.678	-5.552
33.146	226.765	-5.552
33.154	226.842	-5.552
33.163	226.927	-5.552
33.171	227.011	-5.553
33.179	227.091	-5.553
33.188	227.176	-5.553
33.196	227.261	-5.553
33.204	227.347	-5.553
33.213	227.429	-5.553
33.221	227.510	-5.554
33.229	227.593	-5.554
33.238	227.676	-5.554
33.246	227.761	-5.554
33.254	227.843	-5.554
33.263	227.926	-5.554
33.271	228.010	-5.555
33.279	228.096	-5.555
33.288	228.175	-5.555
33.296	228.260	-5.556
33.304	228.347	-5.556
33.313	228.429	-5.556
33.321	228.512	-5.556
33.329	228.596	-5.556
33.338	228.677	-5.557
33.346	228.761	-5.557
33.354	228.844	-5.558
33.363	228.928	-5.558
33.371	229.013	-5.558
33.379	229.097	-5.558
33.388	229.180	-5.559
33.396	229.263	-5.560
33.404	229.346	-5.560
33.413	229.428	-5.561
33.421	229.514	-5.562
33.429	229.596	-5.562
33.438	229.680	-5.562
33.446	229.762	-5.563
33.454	229.847	-5.563
33.463	229.927	-5.563
33.471	230.013	-5.564
33.479	230.093	-5.564
33.488	230.180	-5.564
33.496	230.264	-5.564
33.504	230.347	-5.565
33.513	230.431	-5.565
33.521	230.514	-5.566
33.529	230.598	-5.566
33.538	230.683	-5.567
33.546	230.766	-5.568
33.554	230.849	-5.568
33.563	230.931	-5.568
33.571	231.015	-5.569
33.579	231.096	-5.569
33.588	231.178	-5.569
33.596	231.263	-5.570
33.604	231.346	-5.570
33.613	231.429	-5.571
33.621	231.514	-5.571
33.629	231.601	-5.571
33.638	231.683	-5.571
33.646	231.764	-5.572
33.654	231.849	-5.571
33.663	231.932	-5.572
33.671	232.014	-5.573
33.679	232.097	-5.573
33.688	232.182	-5.573
33.696	232.264	-5.573
33.704	232.346	-5.573
33.713	232.430	-5.574
33.721	232.513	-5.575
33.729	232.595	-5.575
33.738	232.682	-5.576
33.746	232.766	-5.576
33.754	232.848	-5.576
33.763	232.932	-5.577
33.771	233.016	-5.577
33.779	233.097	-5.578
33.788	233.181	-5.578
33.796	233.266	-5.578
33.804	233.348	-5.579
33.813	233.432	-5.579
33.821	233.513	-5.579
33.829	233.599	-5.580
33.838	233.682	-5.581
33.846	233.763	-5.581
33.854	233.847	-5.581
33.863	233.933	-5.582
33.871	234.017	-5.583
33.879	234.098	-5.583
33.888	234.180	-5.584
33.896	234.264	-5.585
33.904	234.350	-5.585
33.913	234.431	-5.585
33.921	234.515	-5.586
33.929	234.601	-5.586
33.938	234.684	-5.586
33.946	234.764	-5.587
33.954	234.853	-5.588
33.963	234.931	-5.589
33.971	235.013	-5.589
33.979	235.099	-5.590
33.988	235.183	-5.591
33.996	235.269	-5.591
34.004	235.352	-5.592
34.013	235.434	-5.593
34.021	235.518	-5.594
34.029	235.601	-5.595
34.038	235.685	-5.596
34.046	235.767	-5.597
34.054	235.854	-5.598
34.063	235.936	-5.599
34.071	236.019	-5.600
34.079	236.106	-5.601
34.088	236.185	-5.602
34.096	236.270	-5.603
34.104	236.353	-5.604
34.113	236.435	-5.604
34.121	236.518	-5.605
34.129	236.607	-5.606
34.138	236.689	-5.606
34.146	236.772	-5.607
34.154	236.851	-5.608
34.163	236.933	-5.608
34.171	237.019	-5.609
34.179	237.103	-5.610
34.188	237.188	-5.610
34.196	237.269	-5.611
34.204	237.353	-5.612
34.213	237.436	-5.613
34.221	237.522	-5.614
34.229	237.602	-5.615
34.238	237.686	-5.616
34.246	237.768	-5.617
34.254	237.849	-5.619
34.263	237.930	-5.620
34.271	238.016	-5.622
34.279	238.100	-5.623
34.288	238.186	-5.624
34.296	238.268	-5.624
34.304	238.353	-5.625
34.313	238.435	-5.626
34.321	238.522	-5.627
34.329	238.602	-5.628
34.338	238.686	-5.628
34.346	238.768	-5.629
34.354	238.851	-5.629
34.363	238.935	-5.630
34.371	239.020	-5.631
34.379	239.102	-5.632
34.388	239.185	-5.633
34.396	239.268	-5.634
34.404	239.353	-5.634
34.413	239.436	-5.635
34.421	239.519	-5.636
34.429	239.600	-5.638
34.438	239.685	-5.639
34.446	239.769	-5.640
34.454	239.853	-5.641
34.463	239.935	-5.643
34.471	240.022	-5.644
34.479	240.103	-5.645
34.488	240.187	-5.646
34.496	240.272	-5.647
34.504	240.351	-5.648
34.513	240.437	-5.649
34.521	240.519	-5.650
34.529	240.601	-5.651
34.538	240.686	-5.652
34.546	240.770	-5.653
34.554	240.854	-5.653
34.563	240.936	-5.654
34.571	241.018	-5.655
34.579	241.103	-5.656
34.588	241.189	-5.657
34.596	241.272	-5.658
34.604	241.355	-5.659
34.613	241.438	-5.659
34.621	241.520	-5.660
34.629	241.605	-5.662
34.638	241.688	-5.663
34.646	241.775	-5.664
34.654	241.857	-5.666
34.663	241.940	-5.667
34.671	242.022	-5.668
34.679	242.106	-5.670
34.688	242.184	-5.671
34.696	242.270	-5.673
34.704	242.351	-5.674
34.713	242.441	-5.676
34.721	242.521	-5.678
34.729	242.604	-5.679
34.738	242.688	-5.680
34.746	242.773	-5.681
34.754	242.858	-5.683
34.763	242.941	-5.684
34.771	243.021	-5.686
34.779	243.105	-5.686
34.788	243.188	-5.687
34.796	243.270	-5.688
34.804	243.352	-5.689
34.813	243.437	-5.689
34.821	243.523	-5.691
34.829	243.602	-5.692
34.838	243.687	-5.693
34.846	243.772	-5.694
34.854	243.854	-5.695
34.863	243.938	-5.696
34.871	244.019	-5.698
34.879	244.104	-5.699
34.888	244.188	-5.700
34.896	244.271	-5.702
34.904	244.352	-5.703
34.913	244.437	-5.704
34.921	244.519	-5.705
34.929	244.604	-5.707
34.938	244.689	-5.708
34.946	244.771	-5.710
34.954	244.859	-5.712
34.963	244.937	-5.713
34.971	245.025	-5.715
34.979	245.105	-5.717
34.988	245.186	-5.719
34.996	245.274	-5.720
35.004	245.354	-5.721
35.013	245.435	-5.723
35.021	245.517	-5.724
35.029	245.600	-5.725
35.038	245.687	-5.726
35.046	245.772	-5.727
35.054	245.856	-5.728
35.063	245.936	-5.730
35.071	246.020	-5.731
35.079	246.101	-5.732
35.088	246.188	-5.734
35.096	246.271	-5.735
35.104	246.353	-5.737
35.113	246.439	-5.738
35.121	246.519	-5.740
35.129	246.601	-5.742
35.138	246.685	-5.743
35.146	246.770	-5.745
35.154	246.851	-5.746
35.163	246.938	-5.748
35.171	247.018	-5.749
35.179	247.104	-5.751
35.188	247.183	-5.752
35.196	247.271	-5.754
35.204	247.353	-5.756
35.213	247.438	-5.757
35.221	247.520	-5.759
35.229	247.605	-5.761
35.238	247.687	-5.763
35.246	247.771	-5.766
35.254	247.855	-5.768
35.263	247.935	-5.770
35.271	248.022	-5.772
35.279	248.105	-5.774
35.288	248.188	-5.776
35.296	248.270	-5.778
35.304	248.351	-5.781
35.313	248.431	-5.783
35.321	248.515	-5.785
35.329	248.601	-5.787
35.338	248.688	-5.789
35.346	248.770	-5.791
35.354	248.850	-5.793
35.363	248.931	-5.795
35.371	249.019	-5.797
35.379	249.101	-5.799
35.388	249.186	-5.801
35.396	249.268	-5.802
35.404	249.350	-5.804
35.413	249.432	-5.806
35.421	249.517	-5.808
35.429	249.600	-5.810
35.438	249.683	-5.812
35.446	249.768	-5.814
35.454	249.853	-5.817
35.463	249.932	-5.818
35.471	250.017	-5.821
35.479	250.100	-5.823
35.488	250.185	-5.825
35.496	250.267	-5.827
35.504	250.353	-5.829
35.513	250.434	-5.831
35.521	250.514	-5.833
35.529	250.593	-5.835
35.538	250.672	-5.837
35.546	250.761	-5.839
35.554	250.842	-5.841
35.563	250.933	-5.843
35.571	251.017	-5.845
35.579	251.100	-5.847
35.588	251.184	-5.849
35.596	251.269	-5.851
35.604	251.354	-5.854
35.613	251.436	-5.856
35.621	251.519	-5.859
35.629	251.603	-5.861
35.638	251.688	-5.864
35.646	251.767	-5.867
35.654	251.853	-5.870
35.663	251.935	-5.873
35.671	252.019	-5.876
35.679	252.104	-5.878
35.688	252.188	-5.880
35.696	252.271	-5.883
35.704	252.352	-5.885
35.713	252.436	-5.888
35.721	252.519	-5.890
35.729	252.599	-5.893
35.738	252.683	-5.896
35.746	252.771	-5.898
35.754	252.850	-5.900
35.763	252.938	-5.903
35.771	253.017	-5.905
35.779	253.100	-5.908
35.788	253.184	-5.910
35.796	253.267	-5.913
35.804	253.351	-5.915
35.813	253.432	-5.918
35.821	253.518	-5.921
35.829	253.602	-5.924
35.838	253.683	-5.927
35.846	253.765	-5.930
35.854	253.848	-5.933
35.863	253.933	-5.936
35.871	254.017	-5.939
35.879	254.097	-5.942
35.888	254.181	-5.945
35.896	254.268	-5.948
35.904	254.348	-5.951
35.913	254.435	-5.954
35.921	254.514	-5.957
35.929	254.599	-5.960
35.938	254.679	-5.962
35.946	254.762	-5.965
35.954	254.848	-5.969
35.963	254.935	-5.971
35.971	255.014	-5.974
35.979	255.095	-5.978
35.988	255.176	-5.981
35.996	255.265	-5.985
36.004	255.347	-5.988
36.013	255.430	-5.991
36.021	255.510	-5.995
36.029	255.594	-5.998
36.038	255.675	-6.002
36.046	255.761	-6.005
36.054	255.845	-6.009
36.063	255.930	-6.012
36.071	256.010	-6.016
36.079	256.093	-6.019
36.088	256.176	-6.022
36.096	256.259	-6.026
36.104	256.347	-6.029
36.113	256.429	-6.032
36.121	256.511	-6.035
36.129	256.593	-6.039
36.138	256.675	-6.042
36.146	256.759	-6.045
36.154	256.843	-6.049
36.163	256.928	-6.052
36.171	257.009	-6.056
36.179	257.090	-6.059
36.188	257.175	-6.063
36.196	257.259	-6.067
36.204	257.343	-6.070
36.213	257.427	-6.074
36.221	257.506	-6.078
36.229	257.592	-6.081
36.238	257.677	-6.085
36.246	257.759	-6.089
36.254	257.841	-6.093
36.263	257.927	-6.096
36.271	258.007	-6.100
36.279	258.091	-6.104
36.288	258.175	-6.108
36.296	258.260	-6.112
36.304	258.340	-6.116
36.313	258.423	-6.120
36.321	258.507	-6.124
36.329	258.586	-6.129
36.338	258.673	-6.133
36.346	258.756	-6.137
36.354	258.841	-6.141
36.363	258.923	-6.146
36.371	259.005	-6.150
36.379	259.088	-6.154
36.388	259.169	-6.158
36.396	259.255	-6.163
36.404	259.340	-6.167
36.413	259.419	-6.172
36.421	259.505	-6.177
36.429	259.589	-6.181
36.438	259.671	-6.186
36.446	259.757	-6.190
36.454	259.836	-6.195
36.463	259.921	-6.200
36.471	260.004	-6.205
36.479	260.088	-6.210
36.488	260.173	-6.214
36.496	260.253	-6.218
36.504	260.341	-6.223
36.513	260.422	-6.228
36.521	260.503	-6.233
36.529	260.585	-6.238
36.538	260.668	-6.243
36.546	260.754	-6.248
36.554	260.839	-6.253
36.563	260.920	-6.258
36.571	260.998	-6.263
36.579	261.081	-6.268
36.588	261.168	-6.273
36.596	261.252	-6.278
36.604	261.334	-6.284
36.613	261.414	-6.289
36.621	261.498	-6.295
36.629	261.586	-6.300
36.638	261.667	-6.306
36.646	261.748	-6.311
36.654	261.831	-6.316
36.663	261.917	-6.322
36.671	261.999	-6.328
36.679	262.080	-6.334
36.688	262.165	-6.340
36.696	262.250	-6.345
36.704	262.329	-6.351
36.713	262.411	-6.357
36.721	262.496	-6.363
36.729	262.579	-6.369
36.738	262.664	-6.375
36.746	262.744	-6.381
36.754	262.828	-6.386
36.763	262.912	-6.392
36.771	262.994	-6.398
36.779	263.077	-6.404
36.788	263.162	-6.410
36.796	263.243	-6.416
36.804	263.323	-6.422
36.813	263.412	-6.428
36.821	263.492	-6.434
36.829	263.573	-6.440
36.838	263.659	-6.446
36.846	263.738	-6.452
36.854	263.821	-6.458
36.863	263.906	-6.464
36.871	263.993	-6.471
36.879	264.072	-6.477
36.888	264.150	-6.483
36.896	264.235	-6.490
36.904	264.319	-6.496
36.913	264.405	-6.503
36.921	264.485	-6.510
36.929	264.572	-6.516
36.938	264.655	-6.523
36.946	264.732	-6.530
36.954	264.818	-6.537
36.963	264.900	-6.544
36.971	264.982	-6.550
36.979	265.066	-6.557
36.988	265.150	-6.563
36.996	265.231	-6.570
37.004	265.315	-6.577
37.013	265.399	-6.584
37.021	265.482	-6.590
37.029	265.563	-6.597
37.038	265.648	-6.604
37.046	265.730	-6.611
37.054	265.816	-6.618
37.063	265.901	-6.625
37.071	265.981	-6.633
37.079	266.066	-6.640
37.088	266.145	-6.648
37.096	266.231	-6.655
37.104	266.311	-6.663
37.113	266.396	-6.670
37.121	266.481	-6.677
37.129	266.561	-6.685
37.138	266.644	-6.692
37.146	266.728	-6.700
37.154	266.813	-6.708
37.163	266.895	-6.715
37.171	266.978	-6.723
37.179	267.058	-6.731
37.188	267.139	-6.740
37.196	267.224	-6.748
37.204	267.308	-6.757
37.213	267.391	-6.765
37.221	267.472	-6.774
37.229	267.559	-6.783
37.238	267.639	-6.791
37.246	267.726	-6.799
37.254	267.805	-6.808
37.263	267.889	-6.817
37.271	267.968	-6.825
37.279	268.051	-6.833
37.288	268.133	-6.842
37.296	268.218	-6.850
37.304	268.304	-6.858
37.313	268.382	-6.866
37.321	268.467	-6.875
37.329	268.546	-6.884
37.338	268.634	-6.892
37.346	268.712	-6.901
37.354	268.799	-6.909
37.363	268.885	-6.918
37.371	268.966	-6.927
37.379	269.044	-6.937
37.388	269.129	-6.946
37.396	269.213	-6.955
37.404	269.296	-6.964
37.413	269.377	-6.973
37.421	269.459	-6.983
37.429	269.543	-6.992
37.438	269.629	-7.002
37.446	269.710	-7.012
37.454	269.792	-7.020
37.463	269.878	-7.030
37.471	269.958	-7.039
37.479	270.044	-7.049
37.488	270.123	-7.059
37.496	270.206	-7.068
37.504	270.291	-7.078
37.513	270.372	-7.087
37.521	270.455	-7.097
37.529	270.538	-7.107
37.538	270.623	-7.117
37.546	270.703	-7.127
37.554	270.788	-7.137
37.563	270.869	-7.147
37.571	270.954	-7.158
37.579	271.034	-7.168
37.588	271.116	-7.179
37.596	271.202	-7.189
37.604	271.287	-7.200
37.613	271.368	-7.210
37.621	271.450	-7.221
37.629	271.524	-7.231
37.638	271.610	-7.242
37.646	271.688	-7.252
37.654	271.774	-7.262
37.663	271.858	-7.272
37.671	271.947	-7.282
37.679	272.031	-7.292
37.688	272.111	-7.302
37.696	272.196	-7.313
37.704	272.272	-7.323
37.713	272.351	-7.333
37.721	272.441	-7.344
37.729	272.524	-7.355
37.738	272.607	-7.366
37.746	272.692	-7.377
37.754	272.773	-7.388
37.763	272.860	-7.398
37.771	272.941	-7.409
37.779	273.026	-7.420
37.788	273.106	-7.431
37.796	273.189	-7.443
37.804	273.274	-7.454
37.813	273.354	-7.466
37.821	273.435	-7.477
37.829	273.518	-7.488
37.838	273.600	-7.500
37.846	273.685	-7.512
37.854	273.769	-7.523
37.863	273.853	-7.534
37.871	273.933	-7.545
37.879	274.016	-7.557
37.888	274.099	-7.568
37.896	274.183	-7.579
37.904	274.263	-7.590
37.913	274.347	-7.601
37.921	274.430	-7.613
37.929	274.513	-7.625
37.938	274.597	-7.638
37.946	274.681	-7.650
37.954	274.759	-7.663
37.963	274.843	-7.675
37.971	274.929	-7.687
37.979	275.008	-7.699
37.988	275.090	-7.711
37.996	275.174	-7.724
38.004	275.256	-7.736
38.013	275.333	-7.747
38.021	275.421	-7.759
38.029	275.505	-7.770
38.038	275.583	-7.782
38.046	275.669	-7.794
38.054	275.752	-7.806
38.063	275.834	-7.818
38.071	275.919	-7.830
38.079	276.004	-7.841
38.088	276.084	-7.853
38.096	276.166	-7.866
38.104	276.250	-7.877
38.113	276.333	-7.890
38.121	276.416	-7.902
38.129	276.500	-7.913
38.138	276.580	-7.925
38.146	276.664	-7.937
38.154	276.748	-7.949
38.163	276.832	-7.962
38.171	276.914	-7.974
38.179	276.991	-7.986
38.188	277.073	-7.998
38.196	277.156	-8.010
38.204	277.239	-8.022
38.213	277.324	-8.034
38.221	277.405	-8.046
38.229	277.486	-8.058
38.238	277.575	-8.069
38.246	277.653	-8.080
38.254	277.739	-8.091
38.263	277.818	-8.103
38.271	277.902	-8.115
38.279	277.981	-8.126
38.288	278.068	-8.137
38.296	278.154	-8.149
38.304	278.233	-8.160
38.313	278.316	-8.171
38.321	278.396	-8.184
38.329	278.484	-8.196
38.338	278.565	-8.208
38.346	278.639	-8.219
38.354	278.731	-8.231
38.363	278.816	-8.243
38.371	278.900	-8.254
38.379	278.980	-8.266
38.388	279.062	-8.278
38.396	279.146	-8.289
38.404	279.232	-8.300
38.413	279.312	-8.311
38.421	279.398	-8.323
38.429	279.478	-8.334
38.438	279.559	-8.345
38.446	279.646	-8.356
38.454	279.724	-8.368
38.463	279.808	-8.379
38.471	279.891	-8.391
38.479	279.974	-8.402
38.488	280.055	-8.414
38.496	280.136	-8.425
38.504	280.224	-8.437
38.513	280.307	-8.448
38.521	280.387	-8.459
38.529	280.470	-8.470
38.538	280.556	-8.481
38.546	280.638	-8.492
38.554	280.719	-8.502
38.563	280.799	-8.513
38.571	280.881	-8.525
38.579	280.967	-8.536
38.588	281.046	-8.546
38.596	281.134	-8.557
38.604	281.215	-8.567
38.613	281.300	-8.579
38.621	281.382	-8.590
38.629	281.464	-8.600
38.638	281.548	-8.611
38.646	281.630	-8.621
38.654	281.714	-8.631
38.663	281.799	-8.642
38.671	281.879	-8.652
38.679	281.964	-8.662
38.688	282.044	-8.672
38.696	282.130	-8.682
38.704	282.215	-8.692
38.713	282.296	-8.702
38.721	282.378	-8.712
38.729	282.463	-8.723
38.738	282.543	-8.733
38.746	282.628	-8.743
38.754	282.709	-8.753
38.763	282.793	-8.763
38.771	282.875	-8.772
38.779	282.956	-8.782
38.788	283.041	-8.792
38.796	283.126	-8.801
38.804	283.205	-8.811
38.813	283.289	-8.820
38.821	283.373	-8.829
38.829	283.454	-8.839
38.838	283.536	-8.848
38.846	283.618	-8.858
38.854	283.703	-8.867
38.863	283.785	-8.876
38.871	283.872	-8.886
38.879	283.954	-8.894
38.888	284.036	-8.903
38.896	284.117	-8.913
38.904	284.202	-8.922
38.913	284.286	-8.930
38.921	284.372	-8.939
38.929	284.450	-8.947
38.938	284.533	-8.956
38.946	284.618	-8.964
38.954	284.700	-8.972
38.963	284.783	-8.981
38.971	284.867	-8.989
38.979	284.948	-8.997
38.988	285.033	-9.004
38.996	285.118	-9.012
39.004	285.197	-9.020
39.013	285.284	-9.028
39.021	285.366	-9.036
39.029	285.445	-9.045
39.038	285.527	-9.053
39.046	285.611	-9.060
39.054	285.696	-9.068
39.063	285.782	-9.075
39.071	285.866	-9.083
39.079	285.947	-9.090
39.088	286.025	-9.098
39.096	286.113	-9.105
39.104	286.197	-9.112
39.113	286.280	-9.119
39.121	286.359	-9.126
39.129	286.445	-9.133
39.138	286.527	-9.140
39.146	286.611	-9.148
39.154	286.692	-9.155
39.163	286.776	-9.161
39.171	286.858	-9.168
39.179	286.942	-9.174
39.188	287.026	-9.181
39.196	287.106	-9.189
39.204	287.192	-9.196
39.213	287.273	-9.202
39.221	287.354	-9.209
39.229	287.447	-9.215
39.238	287.529	-9.221
39.246	287.615	-9.227
39.254	287.701	-9.233
39.263	287.779	-9.240
39.271	287.864	-9.245
39.279	287.944	-9.250
39.288	288.033	-9.256
39.296	288.113	-9.261
39.304	288.194	-9.267
39.313	288.279	-9.273
39.321	288.365	-9.279
39.329	288.444	-9.285
39.338	288.533	-9.290
39.346	288.615	-9.296
39.354	288.695	-9.301
39.363	288.779	-9.307
39.371	288.863	-9.312
39.379	288.946	-9.318
39.388	289.027	-9.323
39.396	289.111	-9.328
39.404	289.199	-9.333
39.413	289.277	-9.339
39.421	289.362	-9.344
39.429	289.445	-9.350
39.438	289.527	-9.355
39.446	289.612	-9.360
39.454	289.696	-9.365
39.463	289.777	-9.370
39.471	289.861	-9.374
39.479	289.945	-9.379
39.488	290.027	-9.383
39.496	290.111	-9.388
39.504	290.191	-9.392
39.513	290.273	-9.396
39.521	290.359	-9.400
39.529	290.442	-9.404
39.538	290.527	-9.409
39.546	290.609	-9.413
39.554	290.695	-9.417
39.563	290.777	-9.421
39.571	290.861	-9.425
39.579	290.945	-9.429
39.588	291.027	-9.434
39.596	291.112	-9.438
39.604	291.194	-9.442
39.613	291.275	-9.446
39.621	291.359	-9.450
39.629	291.445	-9.454
39.638	291.528	-9.458
39.646	291.611	-9.461
39.654	291.697	-9.465
39.663	291.781	-9.469
39.671	291.861	-9.472
39.679	291.942	-9.476
39.688	292.025	-9.480
39.696	292.107	-9.483
39.704	292.193	-9.486
39.713	292.277	-9.490
39.721	292.365	-9.493
39.729	292.447	-9.497
39.738	292.529	-9.501
39.746	292.613	-9.504
39.754	292.690	-9.508
39.763	292.781	-9.512
39.771	292.861	-9.515
39.779	292.945	-9.518
39.788	293.026	-9.522
39.796	293.112	-9.525
39.804	293.194	-9.528
39.813	293.279	-9.532
39.821	293.363	-9.534
39.829	293.447	-9.537
39.838	293.526	-9.539
39.846	293.611	-9.542
39.854	293.696	-9.544
39.863	293.782	-9.547
39.871	293.861	-9.550
39.879	293.941	-9.552
39.888	294.030	-9.554
39.896	294.111	-9.557
39.904	294.197	-9.560
39.913	294.281	-9.563
39.921	294.363	-9.565
39.929	294.447	-9.568
39.938	294.532	-9.571
39.946	294.615	-9.574
39.954	294.699	-9.577
39.963	294.782	-9.579
39.971	294.867	-9.581
39.979	294.946	-9.584
39.988	295.028	-9.586
39.996	295.115	-9.589
40.004	295.200	-9.591
40.013	295.283	-9.593
40.021	295.361	-9.596
40.029	295.447	-9.598
40.038	295.530	-9.600
40.046	295.615	-9.603
40.054	295.693	-9.606
40.063	295.780	-9.608
40.071	295.867	-9.610
40.079	295.950	-9.613
40.088	296.031	-9.615
40.096	296.113	-9.618
40.104	296.198	-9.620
40.113	296.281	-9.622
40.121	296.362	-9.625
40.129	296.446	-9.627
40.138	296.529	-9.628
40.146	296.614	-9.630
40.154	296.700	-9.632
40.163	296.781	-9.634
40.171	296.865	-9.636
40.179	296.952	-9.637
40.188	297.029	-9.638
40.196	297.115	-9.640
40.204	297.199	-9.641
40.213	297.282	-9.643
40.221	297.365	-9.645
40.229	297.450	-9.647
40.238	297.531	-9.648
40.246	297.617	-9.650
40.254	297.698	-9.651
40.263	297.783	-9.653
40.271	297.865	-9.655
40.279	297.950	-9.657
40.288	298.036	-9.659
40.296	298.115	-9.661
40.304	298.201	-9.663
40.313	298.284	-9.664
40.321	298.367	-9.666
40.329	298.452	-9.668
40.338	298.530	-9.670
40.346	298.612	-9.671
40.354	298.698	-9.672
40.363	298.784	-9.673
40.371	298.867	-9.675
40.379	298.948	-9.676
40.388	299.032	-9.677
40.396	299.112	-9.678
40.404	299.199	-9.680
40.413	299.282	-9.681
40.421	299.370	-9.682
40.429	299.451	-9.683
40.438	299.536	-9.685
40.446	299.620	-9.686
40.454	299.701	-9.687
40.463	299.786	-9.689
40.471	299.871	-9.690
40.479	299.957	-9.691
40.488	300.037	-9.692
40.496	300.121	-9.693
40.504	300.204	-9.694
40.513	300.287	-9.695
40.521	300.371	-9.695
40.529	300.450	-9.696
40.538	300.536	-9.696
40.546	300.620	-9.697
40.554	300.703	-9.698
40.563	300.789	-9.699
40.571	300.873	-9.700
40.579	300.954	-9.701
40.588	301.038	-9.702
40.596	301.120	-9.703
40.604	301.206	-9.704
40.613	301.290	-9.705
40.621	301.370	-9.706
40.629	301.455	-9.707
40.638	301.542	-9.708
40.646	301.624	-9.708
40.654	301.705	-9.709
40.663	301.788	-9.709
40.671	301.874	-9.710
40.679	301.957	-9.710
40.688	302.040	-9.709
40.696	302.122	-9.710
40.704	302.206	-9.710
40.713	302.293	-9.710
40.721	302.375	-9.710
40.729	302.458	-9.710
40.738	302.543	-9.711
40.746	302.625	-9.712
40.754	302.709	-9.712
40.763	302.793	-9.713
40.771	302.875	-9.714
40.779	302.959	-9.714
40.788	303.041	-9.715
40.796	303.126	-9.715
40.804	303.210	-9.715
40.813	303.293	-9.716
40.821	303.381	-9.716
40.829	303.460	-9.716
40.838	303.541	-9.716
40.846	303.628	-9.716
40.854	303.711	-9.717
40.863	303.795	-9.717
40.871	303.877	-9.717
40.879	303.961	-9.717
40.888	304.044	-9.719
40.896	304.128	-9.719
40.904	304.214	-9.719
40.913	304.297	-9.720
40.921	304.381	-9.720
40.929	304.463	-9.720
40.938	304.547	-9.720
40.946	304.630	-9.721
40.954	304.718	-9.721
40.963	304.798	-9.721
40.971	304.880	-9.721
40.979	304.964	-9.721
40.988	305.045	-9.721
40.996	305.131	-9.721
41.004	305.214	-9.721
41.013	305.297	-9.721
41.021	305.380	-9.721
41.029	305.467	-9.721
41.038	305.550	-9.721
41.046	305.632	-9.721
41.054	305.715	-9.721
41.063	305.798	-9.721
41.071	305.883	-9.721
41.079	305.967	-9.721
41.088	306.051	-9.721
41.096	306.134	-9.720
41.104	306.217	-9.720
41.113	306.306	-9.720
41.121	306.387	-9.719
41.129	306.471	-9.719
41.138	306.556	-9.719
41.146	306.637	-9.719
41.154	306.721	-9.719
41.163	306.801	-9.719
41.171	306.883	-9.718
41.179	306.969	-9.718
41.188	307.054	-9.717
41.196	307.139	-9.716
41.204	307.219	-9.716
41.213	307.303	-9.715
41.221	307.386	-9.714
41.229	307.475	-9.713
41.238	307.555	-9.712
41.246	307.638	-9.711
41.254	307.720	-9.711
41.263	307.804	-9.710
41.271	307.887	-9.710
41.279	307.973	-9.709
41.288	308.058	-9.708
41.296	308.138	-9.707
41.304	308.223	-9.706
41.313	308.307	-9.705
41.321	308.389	-9.703
41.329	308.474	-9.702
41.338	308.558	-9.700
41.346	308.644	-9.698
41.354	308.714	-9.697
41.363	308.801	-9.696
41.371	308.890	-9.694
41.379	308.975	-9.693
41.388	309.057	-9.691
41.396	309.144	-9.689
41.404	309.226	-9.688
41.413	309.310	-9.685
41.421	309.398	-9.684
41.429	309.478	-9.682
41.438	309.562	-9.680
41.446	309.644	-9.678
41.454	309.728	-9.677
41.463	309.812	-9.675
41.471	309.900	-9.673
41.479	309.982	-9.671
41.488	310.063	-9.669
41.496	310.146	-9.668
41.504	310.233	-9.666
41.513	310.315	-9.664
41.521	310.401	-9.662
41.529	310.483	-9.661
41.538	310.564	-9.659
41.546	310.649	-9.657
41.554	310.732	-9.656
41.563	310.813	-9.654
41.571	310.898	-9.652
41.579	310.985	-9.649
41.588	311.069	-9.647
41.596	311.147	-9.645
41.604	311.236	-9.643
41.613	311.315	-9.640
41.621	311.405	-9.637
41.629	311.489	-9.635
41.638	311.570	-9.632
41.646	311.655	-9.629
41.654	311.736	-9.627
41.663	311.821	-9.624
41.671	311.902	-9.621
41.679	311.985	-9.618
41.688	312.073	-9.615
41.696	312.156	-9.611
41.704	312.239	-9.608
41.713	312.321	-9.605
41.721	312.409	-9.602
41.729	312.491	-9.599
41.738	312.573	-9.595
41.746	312.659	-9.592
41.754	312.742	-9.589
41.763	312.824	-9.586
41.771	312.911	-9.583
41.779	312.991	-9.580
41.788	313.077	-9.578
41.796	313.158	-9.574
41.804	313.247	-9.571
41.813	313.330	-9.568
41.821	313.410	-9.564
41.829	313.493	-9.560
41.838	313.578	-9.557
41.846	313.663	-9.554
41.854	313.746	-9.550
41.863	313.830	-9.546
41.871	313.913	-9.542
41.879	313.996	-9.539
41.888	314.081	-9.535
41.896	314.166	-9.532
41.904	314.250	-9.528
41.913	314.336	-9.524
41.921	314.418	-9.520
41.929	314.501	-9.516
41.938	314.589	-9.512
41.946	314.669	-9.508
41.954	314.749	-9.504
41.963	314.835	-9.499
41.971	314.919	-9.495
41.979	315.009	-9.491
41.988	315.091	-9.487
41.996	315.170	-9.483
42.004	315.257	-9.478
42.013	315.339	-9.473
42.021	315.423	-9.469
42.029	315.505	-9.464
42.038	315.591	-9.459
42.046	315.673	-9.454
42.054	315.759	-9.449
42.063	315.843	-9.444
42.071	315.926	-9.439
42.079	316.011	-9.434
42.088	316.093	-9.429
42.096	316.176	-9.424
42.104	316.259	-9.419
42.113	316.346	-9.413
42.121	316.432	-9.407
42.129	316.512	-9.402
42.138	316.596	-9.397
42.146	316.682	-9.391
42.154	316.766	-9.385
42.163	316.849	-9.380
42.171	316.932	-9.373
42.179	317.014	-9.367
42.188	317.101	-9.360
42.196	317.180	-9.354
42.204	317.267	-9.348
42.213	317.351	-9.342
42.221	317.435	-9.335
42.229	317.521	-9.329
42.238	317.605	-9.323
42.246	317.690	-9.317
42.254	317.772	-9.310
42.263	317.857	-9.304
42.271	317.938	-9.298
42.279	318.021	-9.292
42.288	318.105	-9.285
42.296	318.190	-9.278
42.304	318.273	-9.271
42.313	318.357	-9.264
42.321	318.442	-9.256
42.329	318.523	-9.249
42.338	318.611	-9.241
42.346	318.694	-9.233
42.354	318.777	-9.226
42.363	318.861	-9.218
42.371	318.946	-9.210
42.379	319.033	-9.201
42.388	319.114	-9.193
42.396	319.198	-9.185
42.404	319.282	-9.176
42.413	319.368	-9.168
42.421	319.450	-9.159
42.429	319.535	-9.151
42.438	319.616	-9.142
42.446	319.707	-9.133
42.454	319.787	-9.123
42.463	319.873	-9.114
42.471	319.956	-9.105
42.479	320.044	-9.096
42.488	320.126	-9.087
42.496	320.209	-9.078
42.504	320.292	-9.068
42.513	320.378	-9.058
42.521	320.458	-9.048
42.529	320.547	-9.038
42.538	320.629	-9.027
42.546	320.713	-9.017
42.554	320.798	-9.006
42.563	320.882	-8.995
42.571	320.966	-8.984
42.579	321.050	-8.973
42.588	321.132	-8.961
42.596	321.220	-8.950
42.604	321.299	-8.938
42.613	321.386	-8.926
42.621	321.466	-8.914
42.629	321.552	-8.902
42.638	321.636	-8.890
42.646	321.721	-8.878
42.654	321.806	-8.866
42.663	321.891	-8.853
42.671	321.976	-8.841
42.679	322.059	-8.828
42.688	322.143	-8.817
42.696	322.226	-8.805
42.704	322.313	-8.793
42.713	322.397	-8.781
42.721	322.480	-8.769
42.729	322.565	-8.757
42.738	322.648	-8.744
42.746	322.732	-8.732
42.754	322.817	-8.720
42.763	322.900	-8.707
42.771	322.985	-8.694
42.779	323.072	-8.682
42.788	323.154	-8.669
42.796	323.239	-8.657
42.804	323.321	-8.644
42.813	323.407	-8.632
42.821	323.489	-8.619
42.829	323.576	-8.605
42.838	323.659	-8.592
42.846	323.744	-8.579
42.854	323.832	-8.565
42.863	323.911	-8.551
42.871	323.999	-8.537
42.879	324.080	-8.523
42.888	324.168	-8.508
42.896	324.256	-8.494
42.904	324.335	-8.479
42.913	324.420	-8.465
42.921	324.503	-8.450
42.929	324.586	-8.434
42.938	324.670	-8.420
42.946	324.754	-8.404
42.954	324.839	-8.389
42.963	324.925	-8.374
42.971	325.009	-8.359
42.979	325.095	-8.343
42.988	325.177	-8.328
42.996	325.265	-8.312
43.004	325.349	-8.296
43.013	325.433	-8.280
43.021	325.517	-8.264
43.029	325.602	-8.248
43.038	325.689	-8.232
43.046	325.771	-8.216
43.054	325.854	-8.199
43.063	325.939	-8.183
43.071	326.022	-8.166
43.079	326.106	-8.149
43.088	326.192	-8.133
43.096	326.276	-8.115
43.104	326.362	-8.098
43.113	326.447	-8.080
43.121	326.532	-8.063
43.129	326.619	-8.046
43.138	326.702	-8.028
43.146	326.787	-8.010
43.154	326.870	-7.992
43.163	326.953	-7.975
43.171	327.038	-7.956
43.179	327.128	-7.938
43.188	327.209	-7.920
43.196	327.297	-7.902
43.204	327.378	-7.884
43.213	327.463	-7.866
43.221	327.545	-7.847
43.229	327.630	-7.829
43.238	327.717	-7.810
43.246	327.800	-7.791
43.254	327.886	-7.773
43.263	327.973	-7.754
43.271	328.055	-7.735
43.279	328.140	-7.716
43.288	328.225	-7.697
43.296	328.310	-7.678
43.304	328.389	-7.658
43.313	328.476	-7.638
43.321	328.558	-7.619
43.329	328.645	-7.599
43.338	328.735	-7.579
43.346	328.822	-7.559
43.354	328.904	-7.539
43.363	328.989	-7.519
43.371	329.078	-7.499
43.379	329.162	-7.478
43.388	329.243	-7.457
43.396	329.330	-7.437
43.404	329.413	-7.416
43.413	329.500	-7.395
43.421	329.587	-7.373
43.429	329.668	-7.352
43.438	329.752	-7.331
43.446	329.840	-7.310
43.454	329.923	-7.288
43.463	330.003	-7.267
43.471	330.090	-7.245
43.479	330.178	-7.223
43.488	330.264	-7.201
43.496	330.348	-7.179
43.504	330.431	-7.157
43.513	330.518	-7.135
43.521	330.604	-7.112
43.529	330.686	-7.089
43.538	330.774	-7.067
43.546	330.855	-7.044
43.554	330.941	-7.022
43.563	331.027	-7.000
43.571	331.109	-6.978
43.579	331.197	-6.955
43.588	331.282	-6.932
43.596	331.367	-6.910
43.604	331.450	-6.887
43.613	331.535	-6.865
43.621	331.620	-6.842
43.629	331.701	-6.819
43.638	331.786	-6.796
43.646	331.874	-6.773
43.654	331.959	-6.751
43.663	332.044	-6.728
43.671	332.128	-6.706
43.679	332.212	-6.683
43.688	332.295	-6.660
43.696	332.380	-6.637
43.704	332.462	-6.614
43.713	332.551	-6.592
43.721	332.635	-6.569
43.729	332.722	-6.546
43.738	332.808	-6.523
43.746	332.889	-6.500
43.754	332.977	-6.477
43.763	333.062	-6.454
43.771	333.146	-6.430
43.779	333.228	-6.407
43.788	333.315	-6.383
43.796	333.398	-6.358
43.804	333.487	-6.334
43.813	333.572	-6.310
43.821	333.653	-6.286
43.829	333.737	-6.261
43.838	333.828	-6.237
43.846	333.910	-6.213
43.854	333.994	-6.190
43.863	334.077	-6.166
43.871	334.165	-6.142
43.879	334.256	-6.118
43.888	334.334	-6.094
43.896	334.425	-6.071
43.904	334.511	-6.047
43.913	334.594	-6.023
43.921	334.680	-6.000
43.929	334.766	-5.976
43.938	334.846	-5.952
43.946	334.932	-5.929
43.954	335.015	-5.906
43.963	335.100	-5.883
43.971	335.186	-5.859
43.979	335.272	-5.836
43.988	335.359	-5.813
43.996	335.438	-5.790
44.004	335.525	-5.767
44.013	335.608	-5.745
44.021	335.694	-5.722
44.029	335.778	-5.698
44.038	335.862	-5.674
44.046	335.952	-5.651
44.054	336.032	-5.628
44.063	336.119	-5.605
44.071	336.201	-5.581
44.079	336.288	-5.557
44.088	336.372	-5.533
44.096	336.457	-5.510
44.104	336.542	-5.486
44.113	336.625	-5.464
44.121	336.708	-5.441
44.129	336.798	-5.417
44.138	336.879	-5.394
44.146	336.968	-5.371
44.154	337.052	-5.349
44.163	337.137	-5.326
44.171	337.218	-5.303
44.179	337.305	-5.281
44.188	337.389	-5.258
44.196	337.475	-5.235
44.204	337.555	-5.213
44.213	337.644	-5.191
44.221	337.727	-5.169
44.229	337.813	-5.147
44.238	337.895	-5.125
44.246	337.979	-5.103
44.254	338.066	-5.081
44.263	338.151	-5.059
44.271	338.237	-5.037
44.279	338.322	-5.015
44.288	338.401	-4.993
44.296	338.485	-4.971
44.304	338.572	-4.949
44.313	338.657	-4.927
44.321	338.742	-4.905
44.329	338.827	-4.884
44.338	338.912	-4.863
44.346	338.998	-4.842
44.354	339.083	-4.821
44.363	339.167	-4.800
44.371	339.250	-4.779
44.379	339.336	-4.758
44.388	339.425	-4.738
44.396	339.504	-4.717
44.404	339.591	-4.696
44.413	339.675	-4.674
44.421	339.761	-4.653
44.429	339.845	-4.632
44.438	339.928	-4.611
44.446	340.013	-4.589
44.454	340.097	-4.567
44.463	340.181	-4.545
44.471	340.264	-4.524
44.479	340.351	-4.503
44.488	340.438	-4.482
44.496	340.522	-4.460
44.504	340.606	-4.439
44.513	340.686	-4.418
44.521	340.775	-4.397
44.529	340.862	-4.376
44.538	340.943	-4.356
44.546	341.028	-4.336
44.554	341.113	-4.316
44.563	341.195	-4.295
44.571	341.284	-4.274
44.579	341.369	-4.254
44.588	341.451	-4.233
44.596	341.534	-4.212
44.604	341.621	-4.192
44.613	341.704	-4.172
44.621	341.789	-4.151
44.629	341.877	-4.130
44.638	341.959	-4.110
44.646	342.047	-4.089
44.654	342.131	-4.069
44.663	342.212	-4.049
44.671	342.298	-4.029
44.679	342.379	-4.009
44.688	342.465	-3.989
44.696	342.549	-3.969
44.704	342.632	-3.948
44.713	342.719	-3.928
44.721	342.800	-3.908
44.729	342.886	-3.888
44.738	342.971	-3.868
44.746	343.054	-3.847
44.754	343.140	-3.826
44.763	343.224	-3.806
44.771	343.309	-3.785
44.779	343.392	-3.765
44.788	343.478	-3.745
44.796	343.561	-3.725
44.804	343.646	-3.705
44.813	343.729	-3.685
44.821	343.816	-3.665
44.829	343.902	-3.645
44.838	343.983	-3.626
44.846	344.073	-3.606
44.854	344.152	-3.586
44.863	344.239	-3.566
44.871	344.322	-3.547
44.879	344.408	-3.528
44.888	344.492	-3.508
44.896	344.577	-3.489
44.904	344.661	-3.469
44.913	344.746	-3.450
44.921	344.832	-3.431
44.929	344.916	-3.411
44.938	345.002	-3.392
44.946	345.085	-3.373
44.954	345.170	-3.353
44.963	345.257	-3.333
44.971	345.340	-3.314
44.979	345.422	-3.295
44.988	345.509	-3.276
44.996	345.590	-3.256
45.004	345.677	-3.237
45.013	345.763	-3.218
45.021	345.847	-3.199
45.029	345.930	-3.180
45.038	346.015	-3.161
45.046	346.099	-3.143
45.054	346.183	-3.124
45.063	346.270	-3.105
45.071	346.354	-3.086
45.079	346.439	-3.068
45.088	346.523	-3.050
45.096	346.607	-3.032
45.104	346.688	-3.014
45.113	346.775	-2.995
45.121	346.860	-2.977
45.129	346.943	-2.958
45.138	347.023	-2.940
45.146	347.114	-2.921
45.154	347.195	-2.902
45.163	347.282	-2.883
45.171	347.364	-2.864
45.179	347.450	-2.844
45.188	347.533	-2.826
45.196	347.619	-2.807
45.204	347.704	-2.788
45.213	347.788	-2.769
45.221	347.869	-2.751
45.229	347.954	-2.732
45.238	348.041	-2.714
45.246	348.122	-2.695
45.254	348.211	-2.677
45.263	348.293	-2.658
45.271	348.381	-2.640
45.279	348.463	-2.621
45.288	348.546	-2.603
45.296	348.632	-2.584
45.304	348.716	-2.566
45.313	348.803	-2.547
45.321	348.886	-2.528
45.329	348.969	-2.510
45.338	349.055	-2.492
45.346	349.139	-2.474
45.354	349.222	-2.456
45.363	349.304	-2.437
45.371	349.390	-2.419
45.379	349.472	-2.401
45.388	349.560	-2.382
45.396	349.647	-2.363
45.404	349.727	-2.345
45.413	349.812	-2.326
45.421	349.898	-2.308
45.429	349.986	-2.289
45.438	350.069	-2.270
45.446	350.153	-2.252
45.454	350.236	-2.233
45.463	350.321	-2.215
45.471	350.405	-2.197
45.479	350.487	-2.178
45.488	350.573	-2.159
45.496	350.659	-2.141
45.504	350.742	-2.122
45.513	350.827	-2.104
45.521	350.910	-2.085
45.529	350.996	-2.066
45.538	351.083	-2.046
45.546	351.163	-2.027
45.554	351.250	-2.008
45.563	351.334	-1.989
45.571	351.417	-1.970
45.579	351.498	-1.951
45.588	351.580	-1.932
45.596	351.670	-1.912
45.604	351.752	-1.893
45.613	351.836	-1.874
45.621	351.923	-1.854
45.629	352.006	-1.834
45.638	352.089	-1.815
45.646	352.177	-1.796
45.654	352.257	-1.777
45.663	352.347	-1.757
45.671	352.429	-1.738
45.679	352.512	-1.719
45.688	352.599	-1.700
45.696	352.681	-1.681
45.704	352.767	-1.662
45.713	352.852	-1.643
45.721	352.939	-1.624
45.729	353.023	-1.604
45.738	353.105	-1.584
45.746	353.191	-1.563
45.754	353.274	-1.543
45.763	353.361	-1.523
45.771	353.441	-1.503
45.779	353.529	-1.483
45.788	353.610	-1.462
45.796	353.697	-1.442
45.804	353.783	-1.422
45.813	353.868	-1.402
45.821	353.949	-1.383
45.829	354.037	-1.363
45.838	354.124	-1.343
45.846	354.205	-1.323
45.854	354.292	-1.303
45.863	354.373	-1.283
45.871	354.459	-1.263
45.879	354.543	-1.244
45.888	354.628	-1.223
45.896	354.711	-1.202
45.904	354.798	-1.182
45.913	354.879	-1.161
45.921	354.964	-1.141
45.929	355.050	-1.121
45.938	355.134	-1.100
45.946	355.217	-1.080
45.954	355.300	-1.059
45.963	355.384	-1.039
45.971	355.474	-1.018
45.979	355.557	-0.997
45.988	355.642	-0.976
45.996	355.727	-0.956
46.004	355.817	-0.935
46.013	355.896	-0.914
46.021	355.979	-0.893
46.029	356.063	-0.872
46.038	356.153	-0.851
46.046	356.232	-0.829
46.054	356.317	-0.809
46.063	356.405	-0.789
46.071	356.486	-0.768
46.079	356.569	-0.746
46.088	356.652	-0.726
46.096	356.739	-0.705
46.104	356.823	-0.683
46.113	356.909	-0.662
46.121	356.993	-0.641
46.129	357.079	-0.620
46.138	357.164	-0.598
46.146	357.248	-0.577
46.154	357.334	-0.555
46.163	357.414	-0.534
46.171	357.500	-0.511
46.179	357.588	-0.489
46.188	357.675	-0.467
46.196	357.759	-0.445
46.204	357.841	-0.423
46.213	357.928	-0.401
46.221	358.009	-0.379
46.229	358.099	-0.357
46.238	358.183	-0.335
46.246	358.267	-0.313
46.254	358.355	-0.292
46.263	358.437	-0.270
46.271	358.518	-0.249
46.279	358.609	-0.228
46.288	358.691	-0.206
46.296	358.776	-0.184
46.304	358.856	-0.162
46.313	358.947	-0.140
46.321	359.029	-0.118
46.329	359.115	-0.095
46.338	359.200	-0.073
46.346	359.284	-0.050
46.354	359.368	-0.027
46.363	359.450	-0.004
46.371	359.537	0.018
46.379	359.620	0.041
46.388	359.705	0.064
46.396	359.786	0.086
46.404	359.870	0.109
46.413	359.958	0.131
46.421	360.042	0.153
46.429	360.131	0.176
46.438	360.211	0.199
46.446	360.298	0.221
46.454	360.380	0.244
46.463	360.465	0.267
46.471	360.548	0.290
46.479	360.635	0.314
46.488	360.719	0.337
46.496	360.805	0.360
46.504	360.890	0.383
46.513	360.975	0.406
46.521	361.061	0.430
46.529	361.146	0.454
46.538	361.230	0.477
46.546	361.315	0.500
46.554	361.401	0.523
46.563	361.486	0.547
46.571	361.569	0.570
46.579	361.654	0.593
46.588	361.738	0.617
46.596	361.824	0.640
46.604	361.906	0.664
46.613	361.989	0.687
46.621	362.076	0.711
46.629	362.161	0.736
46.638	362.244	0.760
46.646	362.330	0.784
46.654	362.414	0.809
46.663	362.503	0.832
46.671	362.589	0.856
46.679	362.674	0.880
46.688	362.754	0.903
46.696	362.842	0.927
46.704	362.928	0.950
46.713	363.013	0.974
46.721	363.093	0.997
46.729	363.179	1.021
46.738	363.259	1.044
46.746	363.349	1.068
46.754	363.435	1.093
46.763	363.516	1.117
46.771	363.601	1.142
46.779	363.686	1.165
46.788	363.774	1.189
46.796	363.855	1.214
46.804	363.939	1.238
46.813	364.029	1.262
46.821	364.113	1.286
46.829	364.195	1.310
46.838	364.281	1.334
46.846	364.367	1.358
46.854	364.453	1.382
46.863	364.535	1.407
46.871	364.615	1.432
46.879	364.702	1.457
46.888	364.789	1.482
46.896	364.875	1.507
46.904	364.959	1.533
46.913	365.042	1.559
46.921	365.127	1.584
46.929	365.212	1.610
46.938	365.297	1.635
46.946	365.380	1.661
46.954	365.467	1.686
46.963	365.551	1.712
46.971	365.638	1.737
46.979	365.723	1.763
46.988	365.806	1.788
46.996	365.894	1.813
47.004	365.977	1.839
47.013	366.060	1.865
47.021	366.146	1.890
47.029	366.231	1.915
47.038	366.316	1.941
47.046	366.402	1.966
47.054	366.483	1.992
47.063	366.569	2.018
47.071	366.660	2.044
47.079	366.740	2.070
47.088	366.824	2.096
47.096	366.906	2.122
47.104	366.993	2.147
47.113	367.079	2.173
47.121	367.159	2.199
47.129	367.244	2.225
47.138	367.334	2.251
47.146	367.417	2.276
47.154	367.503	2.302
47.163	367.583	2.328
47.171	367.670	2.353
47.179	367.754	2.379
47.188	367.837	2.405
47.196	367.924	2.431
47.204	368.010	2.457
47.213	368.095	2.483
47.221	368.178	2.509
47.229	368.262	2.536
47.238	368.351	2.562
47.246	368.429	2.588
47.254	368.513	2.614
47.263	368.603	2.640
47.271	368.688	2.667
47.279	368.771	2.694
47.288	368.858	2.720
47.296	368.944	2.746
47.304	369.028	2.773
47.313	369.111	2.800
47.321	369.194	2.826
47.329	369.281	2.853
47.338	369.365	2.880
47.346	369.450	2.906
47.354	369.537	2.932
47.363	369.623	2.958
47.371	369.703	2.985
47.379	369.786	3.011
47.388	369.875	3.037
47.396	369.958	3.062
47.404	370.042	3.088
47.413	370.128	3.114
47.421	370.212	3.140
47.429	370.296	3.166
47.438	370.384	3.192
47.446	370.467	3.218
47.454	370.554	3.244
47.463	370.638	3.269
47.471	370.723	3.296
47.479	370.807	3.322
47.488	370.892	3.348
47.496	370.979	3.374
47.504	371.061	3.400
47.513	371.147	3.425
47.521	371.232	3.451
47.529	371.316	3.477
47.538	371.399	3.503
47.546	371.483	3.528
47.554	371.571	3.554
47.563	371.654	3.580
47.571	371.739	3.605
47.579	371.824	3.631
47.588	371.907	3.656
47.596	371.995	3.682
47.604	372.078	3.707
47.613	372.162	3.732
47.621	372.245	3.757
47.629	372.331	3.782
47.638	372.414	3.807
47.646	372.498	3.831
47.654	372.583	3.855
47.663	372.671	3.880
47.671	372.752	3.904
47.679	372.837	3.928
47.688	372.922	3.952
47.696	373.007	3.976
47.704	373.092	4.000
47.713	373.180	4.024
47.721	373.263	4.048
47.729	373.350	4.072
47.738	373.435	4.096
47.746	373.515	4.119
47.754	373.600	4.143
47.763	373.690	4.166
47.771	373.772	4.190
47.779	373.853	4.213
47.788	373.934	4.235
47.796	374.023	4.257
47.804	374.106	4.280
47.813	374.190	4.301
47.821	374.275	4.323
47.829	374.362	4.345
47.838	374.451	4.367
47.846	374.529	4.389
47.854	374.612	4.410
47.863	374.701	4.431
47.871	374.782	4.452
47.879	374.863	4.473
47.888	374.952	4.495
47.896	375.036	4.516
47.904	375.125	4.538
47.913	375.207	4.558
47.921	375.293	4.578
47.929	375.376	4.598
47.938	375.457	4.618
47.946	375.546	4.639
47.954	375.629	4.658
47.963	375.716	4.677
47.971	375.796	4.695
47.979	375.886	4.714
47.988	375.968	4.732
47.996	376.051	4.751
48.004	376.134	4.769
48.013	376.220	4.788
48.021	376.305	4.806
48.029	376.389	4.823
48.038	376.471	4.840
48.046	376.557	4.857
48.054	376.638	4.873
48.063	376.723	4.890
48.071	376.808	4.906
48.079	376.894	4.922
48.088	376.979	4.938
48.096	377.060	4.953
48.104	377.144	4.968
48.113	377.231	4.982
48.121	377.313	4.997
48.129	377.395	5.011
48.138	377.483	5.025
48.146	377.567	5.038
48.154	377.648	5.050
48.163	377.734	5.063
48.171	377.817	5.075
48.179	377.897	5.087
48.188	377.983	5.099
48.196	378.071	5.111
48.204	378.155	5.123
48.213	378.231	5.134
48.221	378.320	5.145
48.229	378.409	5.156
48.238	378.491	5.166
48.246	378.574	5.176
48.254	378.658	5.186
48.263	378.742	5.195
48.271	378.822	5.204
48.279	378.908	5.212
48.288	378.992	5.220
48.296	379.076	5.228
48.304	379.162	5.235
48.313	379.242	5.242
48.321	379.327	5.248
48.329	379.414	5.254
48.338	379.495	5.260
48.346	379.578	5.265
48.354	379.662	5.270
48.363	379.746	5.275
48.371	379.826	5.278
48.379	379.911	5.282
48.388	379.997	5.287
48.396	380.080	5.290
48.404	380.162	5.292
48.413	380.248	5.294
48.421	380.327	5.296
48.429	380.414	5.297
48.438	380.494	5.298
48.446	380.575	5.298
48.454	380.665	5.297
48.463	380.744	5.296
48.471	380.827	5.294
48.479	380.913	5.292
48.488	380.996	5.290
48.496	381.077	5.287
48.504	381.161	5.284
48.513	381.243	5.280
48.521	381.328	5.276
48.529	381.412	5.272
48.538	381.496	5.266
48.546	381.577	5.261
48.554	381.654	5.254
48.563	381.744	5.248
48.571	381.825	5.240
48.579	381.907	5.232
48.588	381.990	5.224
48.596	382.075	5.216
48.604	382.155	5.207
48.613	382.239	5.198
48.621	382.322	5.188
48.629	382.404	5.178
48.638	382.486	5.168
48.646	382.567	5.157
48.654	382.651	5.145
48.663	382.733	5.133
48.671	382.817	5.121
48.679	382.901	5.108
48.688	382.982	5.094
48.696	383.063	5.080
48.704	383.147	5.065
48.713	383.229	5.049
48.721	383.310	5.033
48.729	383.394	5.017
48.738	383.478	5.000
48.746	383.557	4.982
48.754	383.641	4.963
48.763	383.721	4.945
48.771	383.806	4.926
48.779	383.890	4.906
48.788	383.970	4.885
48.796	384.055	4.865
48.804	384.135	4.844
48.813	384.215	4.822
48.821	384.303	4.800
48.829	384.382	4.778
48.838	384.464	4.756
48.846	384.546	4.732
48.854	384.629	4.709
48.863	384.712	4.685
48.871	384.795	4.660
48.879	384.876	4.635
48.888	384.958	4.608
48.896	385.038	4.581
48.904	385.118	4.555
48.913	385.201	4.527
48.921	385.284	4.498
48.929	385.366	4.469
48.938	385.446	4.440
48.946	385.531	4.410
48.954	385.610	4.380
48.963	385.694	4.350
48.971	385.775	4.319
48.979	385.854	4.288
48.988	385.937	4.257
48.996	386.023	4.225
49.004	386.103	4.192
49.013	386.182	4.159
49.021	386.265	4.125
49.029	386.345	4.091
49.038	386.426	4.057
49.046	386.508	4.022
49.054	386.592	3.986
49.063	386.672	3.950
49.071	386.753	3.914
49.079	386.831	3.877
49.088	386.917	3.841
49.096	386.995	3.804
49.104	387.077	3.766
49.113	387.158	3.728
49.121	387.239	3.690
49.129	387.319	3.650
49.138	387.404	3.611
49.146	387.486	3.571
49.154	387.568	3.531
49.163	387.647	3.489
49.171	387.727	3.447
49.179	387.812	3.405
49.188	387.890	3.363
49.196	387.971	3.320
49.204	388.053	3.276
49.213	388.135	3.232
49.221	388.215	3.187
49.229	388.297	3.143
49.238	388.377	3.098
49.246	388.457	3.053
49.254	388.539	3.007
49.263	388.621	2.961
49.271	388.702	2.915
49.279	388.783	2.868
49.288	388.862	2.822
49.296	388.943	2.776
49.304	389.025	2.729
49.313	389.108	2.682
49.321	389.184	2.634
49.329	389.266	2.585
49.338	389.347	2.536
49.346	389.427	2.487
49.354	389.511	2.437
49.363	389.587	2.387
49.371	389.670	2.336
49.379	389.749	2.285
49.388	389.831	2.234
49.396	389.914	2.183
49.404	389.991	2.131
49.413	390.072	2.079
49.421	390.152	2.026
49.429	390.234	1.974
49.438	390.316	1.921
49.446	390.398	1.868
49.454	390.476	1.814
49.463	390.555	1.760
49.471	390.636	1.705
49.479	390.716	1.651
49.488	390.797	1.596
49.496	390.880	1.541
49.504	390.955	1.485
49.513	391.043	1.429
49.521	391.119	1.372
49.529	391.198	1.315
49.538	391.278	1.259
49.546	391.360	1.202
49.554	391.441	1.145
49.563	391.521	1.087
49.571	391.601	1.028
49.579	391.684	0.970
49.588	391.762	0.911
49.596	391.840	0.853
49.604	391.923	0.794
49.613	392.007	0.735
49.621	392.081	0.675
49.629	392.163	0.616
49.638	392.244	0.556
49.646	392.323	0.497
49.654	392.404	0.437
49.663	392.486	0.377
49.671	392.567	0.317
49.679	392.645	0.257
49.688	392.727	0.197
49.696	392.806	0.137
49.704	392.889	0.076
49.713	392.965	0.015
49.721	393.048	-0.046
49.729	393.128	-0.108
49.738	393.207	-0.169
49.746	393.287	-0.232
49.754	393.366	-0.294
49.763	393.449	-0.356
49.771	393.530	-0.418
49.779	393.608	-0.480
49.788	393.691	-0.543
49.796	393.770	-0.606
49.804	393.853	-0.669
49.813	393.928	-0.732
49.821	394.012	-0.794
49.829	394.093	-0.856
49.838	394.173	-0.919
49.846	394.253	-0.983
49.854	394.334	-1.047
49.863	394.412	-1.110
49.871	394.492	-1.173
49.879	394.570	-1.236
49.888	394.652	-1.299
49.896	394.732	-1.362
49.904	394.811	-1.425
49.913	394.893	-1.489
49.921	394.969	-1.553
49.929	395.053	-1.617
49.938	395.136	-1.681
49.946	395.213	-1.745
49.954	395.295	-1.809
49.963	395.376	-1.873
49.971	395.458	-1.937
49.979	395.534	-2.002
49.988	395.615	-2.067
49.996	395.699	-2.131
50.004	395.777	-2.195
50.013	395.858	-2.259
50.021	395.936	-2.323
50.029	396.018	-2.388
50.038	396.098	-2.451
50.046	396.180	-2.515
50.054	396.261	-2.579
50.063	396.338	-2.643
50.071	396.417	-2.706
50.079	396.497	-2.768
50.088	396.577	-2.832
50.096	396.660	-2.894
50.104	396.741	-2.957
50.113	396.820	-3.019
50.121	396.900	-3.082
50.129	396.981	-3.146
50.138	397.062	-3.209
50.146	397.144	-3.272
50.154	397.222	-3.336
50.163	397.305	-3.398
50.171	397.387	-3.461
50.179	397.467	-3.523
50.188	397.545	-3.586
50.196	397.625	-3.649
50.204	397.704	-3.711
50.213	397.789	-3.772
50.221	397.866	-3.833
50.229	397.946	-3.894
50.238	398.029	-3.955
50.246	398.107	-4.017
50.254	398.190	-4.078
50.263	398.269	-4.139
50.271	398.350	-4.199
50.279	398.432	-4.259
50.288	398.507	-4.319
50.296	398.590	-4.379
50.304	398.673	-4.438
50.313	398.752	-4.498
50.321	398.835	-4.557
50.329	398.916	-4.616
50.338	398.993	-4.674
50.346	399.074	-4.733
50.354	399.156	-4.791
50.363	399.237	-4.850
50.371	399.320	-4.908
50.379	399.400	-4.966
50.388	399.477	-5.025
50.396	399.558	-5.082
50.404	399.642	-5.140
50.413	399.717	-5.196
50.421	399.801	-5.253
50.429	399.882	-5.310
50.438	399.963	-5.366
50.446	400.047	-5.421
50.454	400.123	-5.477
50.463	400.206	-5.533
50.471	400.287	-5.589
50.479	400.368	-5.644
50.488	400.449	-5.698
50.496	400.528	-5.753
50.504	400.609	-5.807
50.513	400.688	-5.860
50.521	400.771	-5.914
50.529	400.851	-5.966
50.538	400.930	-6.019
50.546	401.012	-6.071
50.554	401.093	-6.124
50.563	401.175	-6.176
50.571	401.256	-6.228
50.579	401.336	-6.280
50.588	401.421	-6.332
50.596	401.500	-6.382
50.604	401.580	-6.433
50.613	401.665	-6.484
50.621	401.746	-6.534
50.629	401.822	-6.583
50.638	401.906	-6.632
50.646	401.985	-6.682
50.654	402.069	-6.731
50.663	402.149	-6.779
50.671	402.230	-6.828
50.679	402.313	-6.877
50.688	402.393	-6.925
50.696	402.475	-6.973
50.704	402.557	-7.021
50.713	402.638	-7.068
50.721	402.717	-7.115
50.729	402.796	-7.162
50.738	402.882	-7.208
50.746	402.962	-7.254
50.754	403.046	-7.300
50.763	403.125	-7.344
50.771	403.204	-7.389
50.779	403.289	-7.434
50.788	403.368	-7.479
50.796	403.445	-7.523
50.804	403.532	-7.567
50.813	403.611	-7.609
50.821	403.696	-7.652
50.829	403.778	-7.694
50.838	403.857	-7.736
50.846	403.937	-7.778
50.854	404.017	-7.820
50.863	404.102	-7.861
50.871	404.181	-7.902
50.879	404.264	-7.942
50.888	404.349	-7.983
50.896	404.428	-8.023
50.904	404.510	-8.063
50.913	404.591	-8.103
50.921	404.672	-8.142
50.929	404.753	-8.182
50.938	404.833	-8.220
50.946	404.921	-8.258
50.954	405.000	-8.295
50.963	405.081	-8.333
50.971	405.169	-8.371
50.979	405.245	-8.408
50.988	405.325	-8.445
50.996	405.409	-8.482
51.004	405.491	-8.519
51.013	405.573	-8.554
51.021	405.656	-8.590
51.029	405.735	-8.626
51.038	405.818	-8.662
51.046	405.903	-8.697
51.054	405.978	-8.730
51.063	406.064	-8.765
51.071	406.143	-8.798
51.079	406.227	-8.831
51.088	406.308	-8.864
51.096	406.393	-8.898
51.104	406.473	-8.931
51.113	406.553	-8.963
51.121	406.635	-8.994
51.129	406.715	-9.027
51.138	406.797	-9.059
51.146	406.884	-9.090
51.154	406.966	-9.122
51.163	407.046	-9.153
51.171	407.130	-9.184
51.179	407.215	-9.214
51.188	407.297	-9.244
51.196	407.378	-9.275
51.204	407.460	-9.305
51.213	407.542	-9.334
51.221	407.623	-9.363
51.229	407.706	-9.392
51.238	407.786	-9.421
51.246	407.871	-9.450
51.254	407.953	-9.478
51.263	408.036	-9.506
51.271	408.119	-9.534
51.279	408.200	-9.562
51.288	408.279	-9.589
51.296	408.364	-9.616
51.304	408.446	-9.643
51.313	408.527	-9.670
51.321	408.609	-9.697
51.329	408.694	-9.723
51.338	408.777	-9.749
51.346	408.860	-9.776
51.354	408.940	-9.801
51.363	409.023	-9.826
51.371	409.105	-9.850
51.379	409.183	-9.875
51.388	409.271	-9.899
51.396	409.352	-9.922
51.404	409.430	-9.946
51.413	409.516	-9.970
51.421	409.599	-9.993
51.429	409.684	-10.017
51.438	409.763	-10.040
51.446	409.846	-10.063
51.454	409.931	-10.086
51.463	410.015	-10.109
51.471	410.099	-10.132
51.479	410.177	-10.156
51.488	410.261	-10.179
51.496	410.345	-10.200
51.504	410.426	-10.222
51.513	410.507	-10.245
51.521	410.589	-10.266
51.529	410.673	-10.287
51.538	410.759	-10.309
51.546	410.842	-10.330
51.554	410.924	-10.352
51.563	411.008	-10.374
51.571	411.091	-10.395
51.579	411.170	-10.415
51.588	411.254	-10.436
51.596	411.339	-10.456
51.604	411.418	-10.476
51.613	411.501	-10.497
51.621	411.584	-10.518
51.629	411.665	-10.538
51.638	411.750	-10.557
51.646	411.835	-10.577
51.654	411.914	-10.596
51.663	412.000	-10.616
51.671	412.083	-10.636
51.679	412.164	-10.656
51.688	412.245	-10.675
51.696	412.329	-10.694
51.704	412.413	-10.713
51.713	412.497	-10.731
51.721	412.578	-10.750
51.729	412.659	-10.768
51.738	412.749	-10.786
51.746	412.827	-10.804
51.754	412.913	-10.822
51.763	412.993	-10.839
51.771	413.074	-10.857
51.779	413.162	-10.874
51.788	413.246	-10.892
51.796	413.324	-10.910
51.804	413.407	-10.927
51.813	413.491	-10.945
51.821	413.576	-10.963
51.829	413.656	-10.981
51.838	413.739	-10.999
51.846	413.825	-11.017
51.854	413.907	-11.034
51.863	413.987	-11.052
51.871	414.068	-11.070
51.879	414.152	-11.087
51.888	414.237	-11.104
51.896	414.319	-11.120
51.904	414.401	-11.136
51.913	414.482	-11.151
51.921	414.567	-11.167
51.929	414.647	-11.184
51.938	414.735	-11.200
51.946	414.817	-11.215
51.954	414.898	-11.231
51.963	414.983	-11.247
51.971	415.064	-11.262
51.979	415.146	-11.279
51.988	415.230	-11.295
51.996	415.310	-11.311
52.004	415.395	-11.326
52.013	415.478	-11.341
52.021	415.560	-11.356
52.029	415.642	-11.372
52.038	415.723	-11.386
52.046	415.808	-11.401
52.054	415.891	-11.416
52.063	415.975	-11.431
52.071	416.060	-11.445
52.079	416.139	-11.460
52.088	416.223	-11.475
52.096	416.305	-11.489
52.104	416.390	-11.503
52.113	416.468	-11.517
52.121	416.554	-11.532
52.129	416.639	-11.546
52.138	416.721	-11.560
52.146	416.802	-11.574
52.154	416.890	-11.588
52.163	416.970	-11.602
52.171	417.051	-11.616
52.179	417.134	-11.630
52.188	417.221	-11.643
52.196	417.301	-11.656
52.204	417.385	-11.669
52.213	417.467	-11.683
52.221	417.549	-11.697
52.229	417.633	-11.710
52.238	417.715	-11.723
52.246	417.798	-11.736
52.254	417.882	-11.749
52.263	417.965	-11.763
52.271	418.046	-11.776
52.279	418.126	-11.790
52.288	418.210	-11.803
52.296	418.298	-11.816
52.304	418.377	-11.828
52.313	418.460	-11.841
52.321	418.543	-11.854
52.329	418.629	-11.866
52.338	418.710	-11.879
52.346	418.795	-11.891
52.354	418.880	-11.904
52.363	418.960	-11.917
52.371	419.046	-11.929
52.379	419.127	-11.943
52.388	419.211	-11.955
52.396	419.293	-11.968
52.404	419.375	-11.981
52.413	419.459	-11.993
52.421	419.540	-12.006
52.429	419.626	-12.019
52.438	419.707	-12.031
52.446	419.788	-12.042
52.454	419.873	-12.054
52.463	419.955	-12.065
52.471	420.039	-12.077
52.479	420.120	-12.088
52.488	420.204	-12.100
52.496	420.289	-12.112
52.504	420.372	-12.124
52.513	420.454	-12.135
52.521	420.531	-12.147
52.529	420.621	-12.160
52.538	420.703	-12.172
52.546	420.786	-12.184
52.554	420.868	-12.196
52.563	420.951	-12.208
52.571	421.034	-12.220
52.579	421.118	-12.231
52.588	421.201	-12.243
52.596	421.287	-12.255
52.604	421.367	-12.265
52.613	421.450	-12.277
52.621	421.531	-12.288
52.629	421.615	-12.299
52.638	421.699	-12.311
52.646	421.780	-12.322
52.654	421.863	-12.333
52.663	421.949	-12.344
52.671	422.033	-12.355
52.679	422.112	-12.366
52.688	422.196	-12.377
52.696	422.284	-12.388
52.704	422.363	-12.398
52.713	422.446	-12.410
52.721	422.532	-12.421
52.729	422.613	-12.433
52.738	422.698	-12.445
52.746	422.780	-12.457
52.754	422.864	-12.469
52.763	422.946	-12.480
52.771	423.030	-12.493
52.779	423.115	-12.505
52.788	423.200	-12.517
52.796	423.279	-12.529
52.804	423.363	-12.540
52.813	423.449	-12.552
52.821	423.527	-12.564
52.829	423.607	-12.575
52.838	423.692	-12.586
52.846	423.775	-12.598
52.854	423.859	-12.608
52.863	423.943	-12.619
52.871	424.027	-12.630
52.879	424.111	-12.641
52.888	424.192	-12.653
52.896	424.274	-12.664
52.904	424.359	-12.675
52.913	424.440	-12.686
52.921	424.521	-12.697
52.929	424.602	-12.708
52.938	424.688	-12.719
52.946	424.770	-12.731
52.954	424.855	-12.741
52.963	424.939	-12.752
52.971	425.020	-12.763
52.979	425.102	-12.773
52.988	425.187	-12.783
52.996	425.268	-12.794
53.004	425.351	-12.805
53.013	425.436	-12.815
53.021	425.517	-12.826
53.029	425.599	-12.836
53.038	425.684	-12.846
53.046	425.765	-12.856
53.054	425.851	-12.867
53.063	425.934	-12.877
53.071	426.015	-12.888
53.079	426.100	-12.899
53.088	426.182	-12.909
53.096	426.265	-12.920
53.104	426.347	-12.931
53.113	426.431	-12.942
53.121	426.515	-12.953
53.129	426.597	-12.964
53.138	426.680	-12.975
53.146	426.765	-12.986
53.154	426.849	-12.997
53.163	426.929	-13.007
53.171	427.012	-13.017
53.179	427.098	-13.027
53.188	427.176	-13.037
53.196	427.260	-13.048
53.204	427.341	-13.058
53.213	427.424	-13.068
53.221	427.509	-13.078
53.229	427.592	-13.088
53.238	427.674	-13.098
53.246	427.759	-13.108
53.254	427.840	-13.119
53.263	427.926	-13.130
53.271	428.005	-13.140
53.279	428.089	-13.150
53.288	428.173	-13.161
53.296	428.259	-13.171
53.304	428.346	-13.181
53.313	428.425	-13.192
53.321	428.508	-13.203
53.329	428.591	-13.213
53.338	428.673	-13.224
53.346	428.759	-13.234
53.354	428.842	-13.244
53.363	428.921	-13.254
53.371	429.006	-13.265
53.379	429.094	-13.275
53.388	429.173	-13.286
53.396	429.258	-13.296
53.404	429.341	-13.306
53.413	429.425	-13.316
53.421	429.509	-13.327
53.429	429.592	-13.337
53.438	429.674	-13.348
53.446	429.759	-13.358
53.454	429.839	-13.369
53.463	429.923	-13.379
53.471	430.006	-13.390
53.479	430.089	-13.400
53.488	430.171	-13.410
53.496	430.251	-13.421
53.504	430.338	-13.432
53.513	430.422	-13.443
53.521	430.503	-13.454
53.529	430.588	-13.465
53.538	430.670	-13.475
53.546	430.754	-13.486
53.554	430.835	-13.497
53.563	430.915	-13.508
53.571	431.002	-13.518
53.579	431.085	-13.528
53.588	431.169	-13.538
53.596	431.249	-13.548
53.604	431.330	-13.559
53.613	431.415	-13.569
53.621	431.495	-13.579
53.629	431.580	-13.589
53.638	431.663	-13.599
53.646	431.748	-13.608
53.654	431.830	-13.618
53.663	431.913	-13.629
53.671	431.995	-13.640
53.679	432.077	-13.650
53.688	432.161	-13.660
53.696	432.242	-13.670
53.704	432.327	-13.680
53.713	432.408	-13.691
53.721	432.492	-13.701
53.729	432.575	-13.712
53.738	432.659	-13.723
53.746	432.731	-13.733
53.754	432.826	-13.743
53.763	432.906	-13.752
53.771	432.993	-13.763
53.779	433.074	-13.773
53.788	433.158	-13.783
53.796	433.240	-13.793
53.804	433.322	-13.804
53.813	433.403	-13.815
53.821	433.486	-13.825
53.829	433.571	-13.834
53.838	433.655	-13.844
53.846	433.739	-13.855
53.854	433.822	-13.865
53.863	433.904	-13.876
53.871	433.989	-13.886
53.879	434.070	-13.896
53.888	434.155	-13.907
53.896	434.237	-13.917
53.904	434.322	-13.927
53.913	434.403	-13.938
53.921	434.488	-13.949
53.929	434.570	-13.959
53.938	434.652	-13.970
53.946	434.736	-13.980
53.954	434.822	-13.989
53.963	434.903	-13.999
53.971	434.984	-14.008
53.979	435.066	-14.018
53.988	435.152	-14.027
53.996	435.234	-14.037
54.004	435.318	-14.047
54.013	435.401	-14.057
54.021	435.485	-14.068
54.029	435.565	-14.079
54.038	435.652	-14.090
54.046	435.730	-14.101
54.054	435.815	-14.111
54.063	435.898	-14.123
54.071	435.981	-14.134
54.079	436.066	-14.145
54.088	436.149	-14.155
54.096	436.233	-14.165
54.104	436.316	-14.176
54.113	436.396	-14.186
54.121	436.479	-14.196
54.129	436.561	-14.206
54.138	436.649	-14.217
54.146	436.732	-14.227
54.154	436.814	-14.237
54.163	436.900	-14.247
54.171	436.981	-14.258
54.179	437.065	-14.269
54.188	437.149	-14.279
54.196	437.231	-14.290
54.204	437.313	-14.301
54.213	437.397	-14.312
54.221	437.480	-14.322
54.229	437.565	-14.333
54.238	437.648	-14.344
54.246	437.730	-14.354
54.254	437.811	-14.365
54.263	437.895	-14.376
54.271	437.976	-14.387
54.279	438.058	-14.397
54.288	438.145	-14.408
54.296	438.228	-14.419
54.304	438.310	-14.430
54.313	438.392	-14.440
54.321	438.481	-14.452
54.329	438.561	-14.462
54.338	438.644	-14.473
54.346	438.727	-14.484
54.354	438.805	-14.494
54.363	438.891	-14.505
54.371	438.976	-14.516
54.379	439.057	-14.527
54.388	439.141	-14.537
54.396	439.225	-14.548
54.404	439.309	-14.559
54.413	439.390	-14.570
54.421	439.475	-14.581
54.429	439.557	-14.592
54.438	439.641	-14.603
54.446	439.723	-14.613
54.454	439.810	-14.624
54.463	439.891	-14.635
54.471	439.974	-14.646
54.479	440.054	-14.657
54.488	440.139	-14.667
54.496	440.222	-14.677
54.504	440.306	-14.688
54.513	440.392	-14.699
54.521	440.473	-14.710
54.529	440.557	-14.721
54.538	440.638	-14.733
54.546	440.724	-14.743
54.554	440.803	-14.754
54.563	440.888	-14.765
54.571	440.969	-14.776
54.579	441.054	-14.787
54.588	441.138	-14.798
54.596	441.217	-14.810
54.604	441.303	-14.821
54.613	441.389	-14.832
54.621	441.467	-14.843
54.629	441.556	-14.855
54.638	441.639	-14.866
54.646	441.720	-14.878
54.654	441.803	-14.890
54.663	441.885	-14.902
54.671	441.967	-14.913
54.679	442.050	-14.924
54.688	442.139	-14.934
54.696	442.218	-14.945
54.704	442.298	-14.956
54.713	442.382	-14.967
54.721	442.466	-14.979
54.729	442.546	-14.990
54.738	442.627	-15.001
54.746	442.712	-15.012
54.754	442.795	-15.023
54.763	442.882	-15.035
54.771	442.962	-15.047
54.779	443.044	-15.059
54.788	443.130	-15.071
54.796	443.214	-15.082
54.804	443.299	-15.092
54.813	443.376	-15.103
54.821	443.460	-15.113
54.829	443.543	-15.124
54.838	443.627	-15.134
54.846	443.712	-15.144
54.854	443.793	-15.155
54.863	443.875	-15.166
54.871	443.962	-15.176
54.879	444.040	-15.187
54.888	444.123	-15.198
54.896	444.206	-15.209
54.904	444.286	-15.220
54.913	444.367	-15.230
54.921	444.453	-15.241
54.929	444.536	-15.252
54.938	444.619	-15.262
54.946	444.705	-15.274
54.954	444.785	-15.285
54.963	444.870	-15.297
54.971	444.955	-15.308
54.979	445.036	-15.319
54.988	445.118	-15.330
54.996	445.200	-15.342
55.004	445.286	-15.353
55.013	445.369	-15.364
55.021	445.451	-15.376
55.029	445.537	-15.387
55.038	445.615	-15.397
55.046	445.700	-15.408
55.054	445.785	-15.419
55.063	445.864	-15.431
55.071	445.949	-15.441
55.079	446.030	-15.453
55.088	446.113	-15.464
55.096	446.196	-15.475
55.104	446.279	-15.486
55.113	446.360	-15.497
55.121	446.444	-15.508
55.129	446.526	-15.519
55.138	446.611	-15.529
55.146	446.692	-15.540
55.154	446.774	-15.551
55.163	446.857	-15.561
55.171	446.942	-15.572
55.179	447.024	-15.582
55.188	447.110	-15.593
55.196	447.190	-15.604
55.204	447.276	-15.615
55.213	447.356	-15.626
55.221	447.440	-15.638
55.229	447.524	-15.649
55.238	447.605	-15.661
55.246	447.689	-15.672
55.254	447.774	-15.684
55.263	447.854	-15.695
55.271	447.938	-15.706
55.279	448.022	-15.717
55.288	448.105	-15.729
55.296	448.188	-15.739
55.304	448.268	-15.749
55.313	448.353	-15.760
55.321	448.437	-15.771
55.329	448.520	-15.781
55.338	448.604	-15.792
55.346	448.685	-15.803
55.354	448.769	-15.814
55.363	448.851	-15.825
55.371	448.935	-15.836
55.379	449.016	-15.847
55.388	449.103	-15.859
55.396	449.187	-15.870
55.404	449.268	-15.881
55.413	449.352	-15.894
55.421	449.436	-15.904
55.429	449.518	-15.916
55.438	449.603	-15.927
55.446	449.685	-15.937
55.454	449.768	-15.948
55.463	449.848	-15.960
55.471	449.933	-15.971
55.479	450.014	-15.982
55.488	450.095	-15.992
55.496	450.183	-16.002
55.504	450.264	-16.013
55.513	450.347	-16.024
55.521	450.430	-16.034
55.529	450.512	-16.046
55.538	450.595	-16.057
55.546	450.679	-16.068
55.554	450.763	-16.080
55.563	450.845	-16.091
55.571	450.928	-16.103
55.579	451.009	-16.115
55.588	451.096	-16.127
55.596	451.179	-16.138
55.604	451.256	-16.150
55.613	451.345	-16.161
55.621	451.428	-16.173
55.629	451.509	-16.184
55.638	451.593	-16.195
55.646	451.674	-16.207
55.654	451.760	-16.218
55.663	451.839	-16.229
55.671	451.921	-16.241
55.679	452.008	-16.252
55.688	452.089	-16.263
55.696	452.172	-16.274
55.704	452.256	-16.286
55.713	452.340	-16.297
55.721	452.424	-16.308
55.729	452.508	-16.319
55.738	452.593	-16.330
55.746	452.673	-16.341
55.754	452.759	-16.352
55.763	452.841	-16.363
55.771	452.922	-16.375
55.779	453.005	-16.387
55.788	453.092	-16.398
55.796	453.171	-16.409
55.804	453.254	-16.420
55.813	453.339	-16.431
55.821	453.419	-16.443
55.829	453.500	-16.454
55.838	453.587	-16.465
55.846	453.669	-16.476
55.854	453.754	-16.488
55.863	453.836	-16.500
55.871	453.916	-16.512
55.879	454.000	-16.523
55.888	454.080	-16.535
55.896	454.167	-16.546
55.904	454.249	-16.557
55.913	454.333	-16.569
55.921	454.410	-16.581
55.929	454.499	-16.592
55.938	454.580	-16.603
55.946	454.661	-16.614
55.954	454.748	-16.625
55.963	454.829	-16.635
55.971	454.914	-16.647
55.979	454.998	-16.658
55.988	455.080	-16.671
55.996	455.164	-16.682
56.004	455.248	-16.693
56.013	455.332	-16.705
56.021	455.413	-16.716
56.029	455.495	-16.727
56.038	455.576	-16.739
56.046	455.660	-16.751
56.054	455.744	-16.763
56.063	455.827	-16.774
56.071	455.909	-16.785
56.079	455.991	-16.797
56.088	456.076	-16.808
56.096	456.158	-16.820
56.104	456.239	-16.831
56.113	456.326	-16.843
56.121	456.407	-16.854
56.129	456.489	-16.866
56.138	456.573	-16.877
56.146	456.652	-16.889
56.154	456.737	-16.900
56.163	456.823	-16.911
56.171	456.907	-16.922
56.179	456.989	-16.933
56.188	457.071	-16.945
56.196	457.155	-16.956
56.204	457.236	-16.969
56.213	457.318	-16.980
56.221	457.406	-16.991
56.229	457.486	-17.002
56.238	457.569	-17.013
56.246	457.653	-17.025
56.254	457.736	-17.037
56.263	457.818	-17.049
56.271	457.902	-17.060
56.279	457.982	-17.071
56.288	458.067	-17.082
56.296	458.149	-17.094
56.304	458.230	-17.105
56.313	458.317	-17.117
56.321	458.399	-17.128
56.329	458.484	-17.140
56.338	458.566	-17.152
56.346	458.646	-17.163
56.354	458.734	-17.175
56.363	458.816	-17.187
56.371	458.897	-17.199
56.379	458.981	-17.211
56.388	459.067	-17.223
56.396	459.151	-17.235
56.404	459.231	-17.246
56.413	459.314	-17.258
56.421	459.398	-17.269
56.429	459.482	-17.282
56.438	459.564	-17.294
56.446	459.647	-17.305
56.454	459.732	-17.317
56.463	459.813	-17.330
56.471	459.897	-17.341
56.479	459.982	-17.353
56.488	460.062	-17.365
56.496	460.145	-17.378
56.504	460.231	-17.391
56.513	460.315	-17.403
56.521	460.393	-17.415
56.529	460.477	-17.427
56.538	460.560	-17.438
56.546	460.644	-17.450
56.554	460.726	-17.462
56.563	460.809	-17.474
56.571	460.890	-17.486
56.579	460.973	-17.497
56.588	461.061	-17.508
56.596	461.140	-17.520
56.604	461.226	-17.532
56.613	461.307	-17.544
56.621	461.388	-17.557
56.629	461.474	-17.570
56.638	461.557	-17.582
56.646	461.637	-17.594
56.654	461.723	-17.606
56.663	461.804	-17.619
56.671	461.889	-17.631
56.679	461.970	-17.643
56.688	462.055	-17.655
56.696	462.139	-17.666
56.704	462.219	-17.677
56.713	462.303	-17.690
56.721	462.386	-17.702
56.729	462.467	-17.714
56.738	462.551	-17.726
56.746	462.632	-17.739
56.754	462.717	-17.751
56.763	462.796	-17.764
56.771	462.880	-17.776
56.779	462.962	-17.788
56.788	463.049	-17.800
56.796	463.137	-17.812
56.804	463.216	-17.824
56.813	463.298	-17.837
56.821	463.383	-17.849
56.829	463.468	-17.862
56.838	463.549	-17.874
56.846	463.632	-17.886
56.854	463.715	-17.899
56.863	463.798	-17.912
56.871	463.880	-17.924
56.879	463.964	-17.937
56.888	464.044	-17.950
56.896	464.133	-17.962
56.904	464.213	-17.973
56.913	464.295	-17.985
56.921	464.375	-17.998
56.929	464.460	-18.010
56.938	464.541	-18.022
56.946	464.626	-18.034
56.954	464.709	-18.046
56.963	464.792	-18.058
56.971	464.879	-18.070
56.979	464.959	-18.083
56.988	465.044	-18.096
56.996	465.126	-18.109
57.004	465.209	-18.121
57.013	465.294	-18.134
57.021	465.375	-18.148
57.029	465.457	-18.161
57.038	465.540	-18.175
57.046	465.621	-18.188
57.054	465.706	-18.201
57.063	465.789	-18.213
57.071	465.871	-18.225
57.079	465.958	-18.237
57.088	466.034	-18.250
57.096	466.119	-18.262
57.104	466.202	-18.274
57.113	466.287	-18.286
57.121	466.370	-18.298
57.129	466.450	-18.310
57.138	466.537	-18.323
57.146	466.620	-18.336
57.154	466.702	-18.348
57.163	466.785	-18.361
57.171	466.867	-18.374
57.179	466.952	-18.387
57.188	467.034	-18.400
57.196	467.115	-18.413
57.204	467.198	-18.426
57.213	467.281	-18.439
57.221	467.364	-18.451
57.229	467.446	-18.464
57.238	467.531	-18.477
57.246	467.616	-18.489
57.254	467.697	-18.501
57.263	467.780	-18.514
57.271	467.861	-18.526
57.279	467.945	-18.539
57.288	468.026	-18.551
57.296	468.105	-18.564
57.304	468.190	-18.577
57.313	468.279	-18.589
57.321	468.358	-18.601
57.329	468.441	-18.614
57.338	468.523	-18.627
57.346	468.609	-18.639
57.354	468.694	-18.651
57.363	468.776	-18.664
57.371	468.856	-18.677
57.379	468.941	-18.690
57.388	469.016	-18.704
57.396	469.105	-18.718
57.404	469.190	-18.730
57.413	469.271	-18.743
57.421	469.354	-18.756
57.429	469.441	-18.768
57.438	469.523	-18.781
57.446	469.605	-18.794
57.454	469.688	-18.807
57.463	469.771	-18.819
57.471	469.853	-18.831
57.479	469.937	-18.843
57.488	470.019	-18.856
57.496	470.101	-18.869
57.504	470.183	-18.882
57.513	470.269	-18.895
57.521	470.345	-18.908
57.529	470.434	-18.920
57.538	470.514	-18.932
57.546	470.597	-18.945
57.554	470.681	-18.958
57.563	470.766	-18.970
57.571	470.846	-18.982
57.579	470.932	-18.994
57.588	471.016	-19.006
57.596	471.098	-19.019
57.604	471.179	-19.032
57.613	471.263	-19.045
57.621	471.345	-19.058
57.629	471.429	-19.070
57.638	471.513	-19.082
57.646	471.598	-19.095
57.654	471.680	-19.110
57.663	471.762	-19.123
57.671	471.846	-19.135
57.679	471.927	-19.148
57.688	472.010	-19.160
57.696	472.090	-19.172
57.704	472.174	-19.185
57.713	472.259	-19.198
57.721	472.344	-19.211
57.729	472.428	-19.224
57.738	472.509	-19.235
57.746	472.593	-19.248
57.754	472.673	-19.261
57.763	472.750	-19.274
57.771	472.842	-19.287
57.779	472.923	-19.300
57.788	473.005	-19.313
57.796	473.090	-19.326
57.804	473.173	-19.340
57.813	473.256	-19.353
57.821	473.339	-19.366
57.829	473.423	-19.379
57.838	473.504	-19.392
57.846	473.587	-19.404
57.854	473.672	-19.416
57.863	473.755	-19.429
57.871	473.838	-19.443
57.879	473.919	-19.456
57.888	474.006	-19.469
57.896	474.085	-19.482
57.904	474.166	-19.496
57.913	474.250	-19.509
57.921	474.337	-19.523
57.929	474.417	-19.536
57.938	474.500	-19.550
57.946	474.582	-19.563
57.954	474.667	-19.576
57.963	474.751	-19.590
57.971	474.832	-19.603
57.979	474.917	-19.616
57.988	474.997	-19.629
57.996	475.083	-19.642
58.004	475.164	-19.655
58.013	475.246	-19.668
58.021	475.332	-19.681
58.029	475.410	-19.694
58.038	475.495	-19.707
58.046	475.578	-19.720
58.054	475.659	-19.734
58.063	475.741	-19.747
58.071	475.827	-19.760
58.079	475.907	-19.773
58.088	475.991	-19.785
58.096	476.072	-19.798
58.104	476.158	-19.811
58.113	476.239	-19.824
58.121	476.324	-19.838
58.129	476.404	-19.850
58.138	476.489	-19.863
58.146	476.573	-19.876
58.154	476.657	-19.889
58.163	476.740	-19.902
58.171	476.823	-19.916
58.179	476.904	-19.929
58.188	476.988	-19.943
58.196	477.072	-19.956
58.204	477.158	-19.969
58.213	477.238	-19.982
58.221	477.322	-19.995
58.229	477.407	-20.008
58.238	477.487	-20.021
58.246	477.572	-20.035
58.254	477.653	-20.048
58.263	477.734	-20.061
58.271	477.822	-20.074
58.279	477.906	-20.088
58.288	477.986	-20.101
58.296	478.072	-20.115
58.304	478.152	-20.129
58.313	478.239	-20.142
58.321	478.317	-20.155
58.329	478.401	-20.168
58.338	478.481	-20.182
58.346	478.566	-20.196
58.354	478.649	-20.209
58.363	478.734	-20.221
58.371	478.816	-20.234
58.379	478.902	-20.248
58.388	478.984	-20.261
58.396	479.062	-20.274
58.404	479.149	-20.288
58.413	479.228	-20.301
58.421	479.312	-20.314
58.429	479.393	-20.327
58.438	479.476	-20.340
58.446	479.560	-20.354
58.454	479.642	-20.367
58.463	479.728	-20.380
58.471	479.809	-20.392
58.479	479.895	-20.405
58.488	479.978	-20.417
58.496	480.058	-20.431
58.504	480.142	-20.444
58.513	480.227	-20.457
58.521	480.308	-20.470
58.529	480.396	-20.483
58.538	480.474	-20.496
58.546	480.558	-20.509
58.554	480.640	-20.523
58.563	480.727	-20.536
58.571	480.808	-20.550
58.579	480.890	-20.563
58.588	480.973	-20.575
58.596	481.055	-20.589
58.604	481.142	-20.601
58.613	481.222	-20.615
58.621	481.303	-20.628
58.629	481.388	-20.641
58.638	481.474	-20.654
58.646	481.555	-20.667
58.654	481.637	-20.680
58.663	481.720	-20.693
58.671	481.802	-20.706
58.679	481.881	-20.718
58.688	481.968	-20.732
58.696	482.051	-20.744
58.704	482.136	-20.757
58.713	482.218	-20.770
58.721	482.299	-20.784
58.729	482.385	-20.797
58.738	482.467	-20.810
58.746	482.553	-20.824
58.754	482.636	-20.838
58.763	482.717	-20.852
58.771	482.799	-20.866
58.779	482.884	-20.879
58.788	482.964	-20.893
58.796	483.046	-20.906
58.804	483.132	-20.919
58.813	483.215	-20.933
58.821	483.298	-20.946
58.829	483.375	-20.960
58.838	483.465	-20.973
58.846	483.546	-20.986
58.854	483.629	-20.999
58.863	483.713	-21.013
58.871	483.798	-21.027
58.879	483.877	-21.040
58.888	483.962	-21.054
58.896	484.045	-21.067
58.904	484.131	-21.080
58.913	484.212	-21.094
58.921	484.294	-21.108
58.929	484.380	-21.122
58.938	484.460	-21.136
58.946	484.545	-21.151
58.954	484.629	-21.165
58.963	484.709	-21.179
58.971	484.790	-21.194
58.979	484.877	-21.209
58.988	484.961	-21.224
58.996	485.042	-21.238
59.004	485.124	-21.252
59.013	485.207	-21.267
59.021	485.291	-21.281
59.029	485.370	-21.295
59.038	485.454	-21.309
59.046	485.538	-21.323
59.054	485.620	-21.337
59.063	485.704	-21.352
59.071	485.789	-21.366
59.079	485.871	-21.379
59.088	485.953	-21.393
59.096	486.038	-21.408
59.104	486.119	-21.422
59.113	486.203	-21.436
59.121	486.286	-21.451
59.129	486.369	-21.464
59.138	486.452	-21.478
59.146	486.537	-21.493
59.154	486.617	-21.507
59.163	486.699	-21.522
59.171	486.783	-21.537
59.179	486.865	-21.551
59.188	486.947	-21.565
59.196	487.033	-21.579
59.204	487.118	-21.594
59.213	487.197	-21.609
59.221	487.279	-21.624
59.229	487.365	-21.638
59.238	487.447	-21.652
59.246	487.531	-21.666
59.254	487.612	-21.681
59.263	487.692	-21.696
59.271	487.780	-21.711
59.279	487.859	-21.726
59.288	487.942	-21.740
59.296	488.027	-21.755
59.304	488.112	-21.769
59.313	488.193	-21.784
59.321	488.274	-21.800
59.329	488.356	-21.815
59.338	488.436	-21.829
59.346	488.519	-21.844
59.354	488.606	-21.858
59.363	488.689	-21.873
59.371	488.770	-21.888
59.379	488.853	-21.903
59.388	488.938	-21.918
59.396	489.020	-21.932
59.404	489.096	-21.947
59.413	489.187	-21.962
59.421	489.264	-21.977
59.429	489.349	-21.993
59.438	489.435	-22.009
59.446	489.518	-22.024
59.454	489.599	-22.039
59.463	489.682	-22.054
59.471	489.765	-22.070
59.479	489.847	-22.086
59.488	489.931	-22.101
59.496	490.010	-22.115
59.504	490.095	-22.130
59.513	490.176	-22.145
59.521	490.259	-22.160
59.529	490.343	-22.174
59.538	490.427	-22.189
59.546	490.509	-22.204
59.554	490.592	-22.218
59.563	490.676	-22.232
59.571	490.760	-22.247
59.579	490.844	-22.262
59.588	490.926	-22.277
59.596	491.009	-22.292
59.604	491.092	-22.306
59.613	491.172	-22.321
59.621	491.257	-22.336
59.629	491.341	-22.352
59.638	491.423	-22.367
59.646	491.506	-22.383
59.654	491.587	-22.399
59.663	491.668	-22.414
59.671	491.752	-22.429
59.679	491.836	-22.445
59.688	491.919	-22.461
59.696	491.999	-22.476
59.704	492.083	-22.492
59.713	492.170	-22.508
59.721	492.251	-22.523
59.729	492.332	-22.538
59.738	492.414	-22.553
59.746	492.501	-22.569
59.754	492.583	-22.584
59.763	492.666	-22.599
59.771	492.748	-22.616
59.779	492.831	-22.631
59.788	492.913	-22.647
59.796	492.999	-22.663
59.804	493.081	-22.679
59.813	493.162	-22.695
59.821	493.244	-22.711
59.829	493.329	-22.727
59.838	493.412	-22.744
59.846	493.495	-22.760
59.854	493.578	-22.776
59.863	493.658	-22.792
59.871	493.741	-22.808
59.879	493.824	-22.823
59.888	493.906	-22.839
59.896	493.992	-22.855
59.904	494.073	-22.870
59.913	494.154	-22.887
59.921	494.244	-22.903
59.929	494.324	-22.918
59.938	494.405	-22.934
59.946	494.490	-22.951
59.954	494.569	-22.967
59.963	494.651	-22.984
59.971	494.736	-23.001
59.979	494.820	-23.017
59.988	494.900	-23.034
59.996	494.983	-23.050
60.004	495.068	-23.066
60.013	495.149	-23.082
60.021	495.234	-23.099
60.029	495.317	-23.115
60.038	495.398	-23.132
60.046	495.477	-23.148
60.054	495.565	-23.164
60.063	495.647	-23.180
60.071	495.725	-23.196
60.079	495.817	-23.213
60.088	495.896	-23.229
60.096	495.979	-23.247
60.104	496.060	-23.264
60.113	496.144	-23.280
60.121	496.229	-23.297
60.129	496.314	-23.315
60.138	496.393	-23.332
60.146	496.478	-23.351
60.154	496.557	-23.368
60.163	496.641	-23.385
60.171	496.728	-23.402
60.179	496.810	-23.418
60.188	496.891	-23.435
60.196	496.975	-23.452
60.204	497.058	-23.469
60.213	497.135	-23.486
60.221	497.221	-23.502
60.229	497.307	-23.519
60.238	497.385	-23.535
60.246	497.467	-23.552
60.254	497.551	-23.570
60.263	497.636	-23.586
60.271	497.717	-23.603
60.279	497.802	-23.620
60.288	497.880	-23.637
60.296	497.969	-23.654
60.304	498.051	-23.670
60.313	498.136	-23.687
60.321	498.217	-23.705
60.329	498.299	-23.722
60.338	498.384	-23.739
60.346	498.464	-23.756
60.354	498.545	-23.774
60.363	498.630	-23.792
60.371	498.713	-23.808
60.379	498.797	-23.826
60.388	498.875	-23.844
60.396	498.960	-23.862
60.404	499.043	-23.879
60.413	499.124	-23.896
60.421	499.210	-23.914
60.429	499.295	-23.931
60.438	499.375	-23.949
60.446	499.456	-23.966
60.454	499.541	-23.984
60.463	499.625	-24.002
60.471	499.709	-24.019
60.479	499.789	-24.037
60.488	499.873	-24.056
60.496	499.955	-24.074
60.504	500.039	-24.092
60.513	500.122	-24.110
60.521	500.203	-24.128
60.529	500.284	-24.146
60.538	500.371	-24.165
60.546	500.452	-24.183
60.554	500.534	-24.201
60.563	500.619	-24.219
60.571	500.703	-24.236
60.579	500.783	-24.254
60.588	500.865	-24.273
60.596	500.947	-24.292
60.604	501.032	-24.311
60.613	501.114	-24.329
60.621	501.199	-24.348
60.629	501.283	-24.367
60.638	501.362	-24.386
60.646	501.445	-24.405
60.654	501.527	-24.425
60.663	501.615	-24.443
60.671	501.695	-24.461
60.679	501.781	-24.479
60.688	501.859	-24.498
60.696	501.944	-24.517
60.704	502.022	-24.536
60.713	502.107	-24.554
60.721	502.192	-24.573
60.729	502.276	-24.592
60.738	502.358	-24.611
60.746	502.439	-24.631
60.754	502.525	-24.651
60.763	502.605	-24.670
60.771	502.685	-24.690
60.779	502.769	-24.709
60.788	502.854	-24.727
60.796	502.936	-24.746
60.804	503.018	-24.764
60.813	503.101	-24.784
60.821	503.181	-24.803
60.829	503.267	-24.821
60.838	503.346	-24.840
60.846	503.431	-24.858
60.854	503.514	-24.876
60.863	503.597	-24.894
60.871	503.680	-24.913
60.879	503.762	-24.932
60.888	503.843	-24.950
60.896	503.928	-24.968
60.904	504.011	-24.986
60.913	504.091	-25.004
60.921	504.176	-25.023
60.929	504.257	-25.041
60.938	504.339	-25.059
60.946	504.425	-25.077
60.954	504.504	-25.096
60.963	504.588	-25.114
60.971	504.672	-25.132
60.979	504.754	-25.151
60.988	504.835	-25.170
60.996	504.918	-25.188
61.004	505.003	-25.206
61.013	505.082	-25.224
61.021	505.166	-25.242
61.029	505.250	-25.260
61.038	505.331	-25.278
61.046	505.419	-25.296
61.054	505.498	-25.314
61.063	505.580	-25.332
61.071	505.664	-25.350
61.079	505.746	-25.367
61.088	505.830	-25.386
61.096	505.915	-25.405
61.104	505.993	-25.424
61.113	506.077	-25.444
61.121	506.162	-25.463
61.129	506.247	-25.482
61.138	506.329	-25.502
61.146	506.409	-25.521
61.154	506.492	-25.541
61.163	506.572	-25.561
61.171	506.657	-25.580
61.179	506.741	-25.598
61.188	506.822	-25.616
61.196	506.904	-25.634
61.204	506.985	-25.652
61.213	507.069	-25.670
61.221	507.154	-25.687
61.229	507.233	-25.705
61.238	507.320	-25.722
61.246	507.399	-25.740
61.254	507.479	-25.757
61.263	507.565	-25.776
61.271	507.649	-25.793
61.279	507.731	-25.811
61.288	507.812	-25.830
61.296	507.896	-25.848
61.304	507.980	-25.866
61.313	508.064	-25.883
61.321	508.144	-25.901
61.329	508.233	-25.919
61.338	508.309	-25.937
61.346	508.396	-25.955
61.354	508.477	-25.974
61.363	508.559	-25.991
61.371	508.646	-26.009
61.379	508.726	-26.026
61.388	508.807	-26.044
61.396	508.895	-26.063
61.404	508.977	-26.080
61.413	509.061	-26.098
61.421	509.144	-26.116
61.429	509.224	-26.134
61.438	509.308	-26.151
61.446	509.390	-26.169
61.454	509.473	-26.187
61.463	509.557	-26.205
61.471	509.640	-26.223
61.479	509.724	-26.242
61.488	509.805	-26.261
61.496	509.888	-26.279
61.504	509.969	-26.298
61.513	510.053	-26.317
61.521	510.133	-26.335
61.529	510.217	-26.353
61.538	510.300	-26.371
61.546	510.384	-26.388
61.554	510.467	-26.406
61.563	510.551	-26.423
61.571	510.633	-26.441
61.579	510.716	-26.458
61.588	510.798	-26.476
61.596	510.879	-26.493
61.604	510.961	-26.510
61.613	511.047	-26.528
61.621	511.129	-26.546
61.629	511.212	-26.563
61.638	511.299	-26.581
61.646	511.376	-26.599
61.654	511.459	-26.616
61.663	511.543	-26.633
61.671	511.626	-26.650
61.679	511.708	-26.668
61.688	511.792	-26.684
61.696	511.873	-26.701
61.704	511.958	-26.718
61.713	512.039	-26.736
61.721	512.121	-26.753
61.729	512.207	-26.770
61.738	512.291	-26.787
61.746	512.371	-26.804
61.754	512.454	-26.822
61.763	512.538	-26.839
61.771	512.622	-26.856
61.779	512.706	-26.874
61.788	512.785	-26.891
61.796	512.868	-26.908
61.804	512.953	-26.925
61.813	513.034	-26.941
61.821	513.114	-26.958
61.829	513.196	-26.976
61.838	513.282	-26.992
61.846	513.362	-27.009
61.854	513.450	-27.026
61.863	513.532	-27.042
61.871	513.614	-27.059
61.879	513.697	-27.077
61.888	513.779	-27.094
61.896	513.864	-27.112
61.904	513.946	-27.129
61.913	514.027	-27.146
61.921	514.110	-27.164
61.929	514.194	-27.182
61.938	514.275	-27.198
61.946	514.355	-27.215
61.954	514.437	-27.232
61.963	514.524	-27.248
61.971	514.606	-27.264
61.979	514.690	-27.280
61.988	514.773	-27.295
61.996	514.859	-27.311
62.004	514.939	-27.327
62.013	515.024	-27.344
62.021	515.104	-27.360
62.029	515.188	-27.377
62.038	515.270	-27.392
62.046	515.350	-27.408
62.054	515.432	-27.424
62.063	515.519	-27.439
62.071	515.601	-27.455
62.079	515.686	-27.470
62.088	515.768	-27.486
62.096	515.852	-27.501
62.104	515.936	-27.517
62.113	516.018	-27.533
62.121	516.099	-27.549
62.129	516.185	-27.565
62.138	516.264	-27.582
62.146	516.348	-27.598
62.154	516.432	-27.614
62.163	516.515	-27.630
62.171	516.598	-27.646
62.179	516.680	-27.661
62.188	516.763	-27.676
62.196	516.845	-27.691
62.204	516.930	-27.706
62.213	517.010	-27.721
62.221	517.095	-27.736
62.229	517.176	-27.751
62.238	517.262	-27.767
62.246	517.347	-27.781
62.254	517.427	-27.796
62.263	517.513	-27.811
62.271	517.593	-27.826
62.279	517.674	-27.841
62.288	517.760	-27.857
62.296	517.842	-27.872
62.304	517.926	-27.887
62.313	518.006	-27.902
62.321	518.086	-27.917
62.329	518.172	-27.932
62.338	518.253	-27.947
62.346	518.340	-27.962
62.354	518.424	-27.977
62.363	518.502	-27.992
62.371	518.586	-28.007
62.379	518.669	-28.022
62.388	518.750	-28.037
62.396	518.832	-28.051
62.404	518.917	-28.066
62.413	519.004	-28.080
62.421	519.088	-28.094
62.429	519.167	-28.108
62.438	519.251	-28.123
62.446	519.330	-28.137
62.454	519.414	-28.151
62.463	519.499	-28.165
62.471	519.584	-28.178
62.479	519.666	-28.193
62.488	519.753	-28.208
62.496	519.846	-28.223
62.504	519.939	-28.238
62.513	520.024	-28.253
62.521	520.107	-28.270
62.529	520.188	-28.287
62.538	520.269	-28.305
62.546	520.332	-28.323
62.554	520.410	-28.341
62.563	520.496	-28.357
62.571	520.576	-28.373
62.579	520.660	-28.388
62.588	520.741	-28.403
62.596	520.824	-28.417
62.604	520.909	-28.431
62.613	520.990	-28.444
62.621	521.074	-28.457
62.629	521.154	-28.469
62.638	521.238	-28.481
62.646	521.323	-28.495
62.654	521.397	-28.510
62.663	521.479	-28.524
62.671	521.574	-28.538
62.679	521.654	-28.551
62.688	521.737	-28.566
62.696	521.818	-28.581
62.704	521.905	-28.595
62.713	521.987	-28.609
62.721	522.071	-28.624
62.729	522.149	-28.639
62.738	522.232	-28.654
62.746	522.320	-28.668
62.754	522.400	-28.683
62.763	522.482	-28.698
62.771	522.567	-28.712
62.779	522.651	-28.726
62.788	522.731	-28.740
62.796	522.817	-28.754
62.804	522.898	-28.768
62.813	522.982	-28.782
62.821	523.063	-28.795
62.829	523.151	-28.809
62.838	523.232	-28.823
62.846	523.316	-28.837
62.854	523.396	-28.851
62.863	523.480	-28.865
62.871	523.561	-28.879
62.879	523.640	-28.893
62.888	523.720	-28.907
62.896	523.803	-28.920
62.904	523.896	-28.933
62.913	523.977	-28.947
62.921	524.058	-28.961
62.929	524.141	-28.975
62.938	524.224	-28.989
62.946	524.305	-29.002
62.954	524.390	-29.015
62.963	524.472	-29.029
62.971	524.553	-29.041
62.979	524.643	-29.055
62.988	524.722	-29.069
62.996	524.804	-29.084
63.004	524.885	-29.098
63.013	524.967	-29.110
63.021	525.052	-29.123
63.029	525.134	-29.137
63.038	525.220	-29.150
63.046	525.304	-29.163
63.054	525.387	-29.178
63.063	525.469	-29.192
63.071	525.553	-29.205
63.079	525.633	-29.218
63.088	525.717	-29.231
63.096	525.800	-29.244
63.104	525.884	-29.258
63.113	525.968	-29.272
63.121	526.048	-29.286
63.129	526.136	-29.299
63.138	526.217	-29.313
63.146	526.296	-29.327
63.154	526.381	-29.341
63.163	526.465	-29.355
63.171	526.548	-29.368
63.179	526.632	-29.383
63.188	526.716	-29.397
63.196	526.797	-29.411
63.204	526.879	-29.424
63.213	526.967	-29.438
63.221	527.048	-29.452
63.229	527.133	-29.465
63.238	527.216	-29.479
63.246	527.303	-29.493
63.254	527.383	-29.508
63.263	527.462	-29.522
63.271	527.548	-29.536
63.279	527.629	-29.551
63.288	527.712	-29.565
63.296	527.792	-29.578
63.304	527.879	-29.593
63.313	527.960	-29.607
63.321	528.041	-29.621
63.329	528.127	-29.634
63.338	528.211	-29.647
63.346	528.295	-29.660
63.354	528.377	-29.673
63.363	528.460	-29.686
63.371	528.539	-29.700
63.379	528.624	-29.714
63.388	528.712	-29.727
63.396	528.794	-29.740
63.404	528.873	-29.754
63.413	528.956	-29.768
63.421	529.039	-29.782
63.429	529.122	-29.796
63.438	529.206	-29.811
63.446	529.291	-29.825
63.454	529.372	-29.838
63.463	529.457	-29.853
63.471	529.539	-29.868
63.479	529.624	-29.883
63.488	529.706	-29.896
63.496	529.788	-29.910
63.504	529.872	-29.925
63.513	529.954	-29.938
63.521	530.038	-29.952
63.529	530.120	-29.966
63.538	530.202	-29.979
63.546	530.286	-29.991
63.554	530.371	-30.005
63.563	530.449	-30.018
63.571	530.536	-30.032
63.579	530.617	-30.045
63.588	530.699	-30.058
63.596	530.783	-30.072
63.604	530.864	-30.086
63.613	530.951	-30.100
63.621	531.034	-30.114
63.629	531.117	-30.129
63.638	531.199	-30.142
63.646	531.281	-30.156
63.654	531.365	-30.170
63.663	531.446	-30.183
63.671	531.533	-30.196
63.679	531.616	-30.209
63.688	531.696	-30.223
63.696	531.779	-30.237
63.704	531.861	-30.250
63.713	531.945	-30.263
63.721	532.029	-30.277
63.729	532.112	-30.290
63.738	532.195	-30.303
63.746	532.275	-30.317
63.754	532.362	-30.331
63.763	532.447	-30.344
63.771	532.524	-30.358
63.779	532.610	-30.370
63.788	532.693	-30.384
63.796	532.775	-30.398
63.804	532.859	-30.412
63.813	532.941	-30.424
63.821	533.023	-30.437
63.829	533.108	-30.450
63.838	533.190	-30.463
63.846	533.273	-30.477
63.854	533.356	-30.490
63.863	533.440	-30.503
63.871	533.521	-30.515
63.879	533.609	-30.528
63.888	533.688	-30.540
63.896	533.768	-30.554
63.904	533.853	-30.567
63.913	533.942	-30.580
63.921	534.022	-30.593
63.929	534.102	-30.605
63.938	534.184	-30.618
63.946	534.267	-30.630
63.954	534.351	-30.642
63.963	534.437	-30.655
63.971	534.520	-30.668
63.979	534.606	-30.680
63.988	534.686	-30.693
63.996	534.771	-30.706
64.004	534.852	-30.719
64.013	534.933	-30.732
64.021	535.020	-30.745
64.029	535.102	-30.758
64.038	535.185	-30.772
64.046	535.267	-30.786
64.054	535.349	-30.798
64.063	535.434	-30.811
64.071	535.516	-30.823
64.079	535.598	-30.836
64.088	535.685	-30.848
64.096	535.769	-30.861
64.104	535.846	-30.873
64.113	535.933	-30.886
64.121	536.016	-30.899
64.129	536.096	-30.912
64.138	536.180	-30.926
64.146	536.262	-30.939
64.154	536.346	-30.952
64.163	536.428	-30.964
64.171	536.511	-30.977
64.179	536.598	-30.989
64.188	536.676	-31.001
64.196	536.760	-31.013
64.204	536.844	-31.023
64.213	536.925	-31.034
64.221	537.009	-31.045
64.229	537.092	-31.056
64.238	537.175	-31.067
64.246	537.260	-31.079
64.254	537.341	-31.091
64.263	537.426	-31.103
64.271	537.507	-31.114
64.279	537.592	-31.125
64.288	537.676	-31.137
64.296	537.757	-31.149
64.304	537.842	-31.161
64.313	537.927	-31.172
64.321	538.006	-31.184
64.329	538.087	-31.195
64.338	538.172	-31.205
64.346	538.254	-31.215
64.354	538.340	-31.226
64.363	538.421	-31.237
64.371	538.505	-31.248
64.379	538.587	-31.259
64.388	538.673	-31.269
64.396	538.754	-31.280
64.404	538.840	-31.290
64.413	538.922	-31.300
64.421	539.006	-31.311
64.429	539.086	-31.322
64.438	539.173	-31.333
64.446	539.252	-31.343
64.454	539.335	-31.353
64.463	539.419	-31.363
64.471	539.505	-31.374
64.479	539.586	-31.384
64.488	539.669	-31.395
64.496	539.754	-31.405
64.504	539.836	-31.415
64.513	539.922	-31.425
64.521	540.001	-31.435
64.529	540.081	-31.446
64.538	540.166	-31.456
64.546	540.252	-31.466
64.554	540.333	-31.477
64.563	540.419	-31.487
64.571	540.501	-31.498
64.579	540.585	-31.509
64.588	540.665	-31.520
64.596	540.750	-31.531
64.604	540.832	-31.541
64.613	540.916	-31.551
64.621	540.999	-31.561
64.629	541.080	-31.570
64.638	541.162	-31.580
64.646	541.250	-31.589
64.654	541.333	-31.598
64.663	541.416	-31.607
64.671	541.496	-31.616
64.679	541.584	-31.626
64.688	541.665	-31.635
64.696	541.746	-31.644
64.704	541.830	-31.654
64.713	541.914	-31.664
64.721	541.999	-31.674
64.729	542.079	-31.683
64.738	542.162	-31.693
64.746	542.244	-31.703
64.754	542.329	-31.713
64.763	542.411	-31.722
64.771	542.493	-31.731
64.779	542.577	-31.741
64.788	542.658	-31.750
64.796	542.746	-31.759
64.804	542.826	-31.769
64.813	542.911	-31.778
64.821	542.993	-31.787
64.829	543.078	-31.796
64.838	543.159	-31.805
64.846	543.243	-31.814
64.854	543.329	-31.823
64.863	543.411	-31.832
64.871	543.492	-31.842
64.879	543.576	-31.851
64.888	543.657	-31.860
64.896	543.741	-31.869
64.904	543.823	-31.878
64.913	543.904	-31.887
64.921	543.990	-31.896
64.929	544.077	-31.904
64.938	544.157	-31.914
64.946	544.242	-31.923
64.954	544.326	-31.931
64.963	544.410	-31.940
64.971	544.493	-31.949
64.979	544.573	-31.958
64.988	544.654	-31.967
64.996	544.738	-31.976
65.004	544.824	-31.984
65.013	544.906	-31.992
65.021	544.989	-32.002
65.029	545.070	-32.010
65.038	545.155	-32.019
65.046	545.239	-32.027
65.054	545.321	-32.035
65.063	545.405	-32.043
65.071	545.489	-32.051
65.079	545.568	-32.059
65.088	545.655	-32.069
65.096	545.737	-32.078
65.104	545.825	-32.085
65.113	545.908	-32.094
65.121	545.990	-32.103
65.129	546.070	-32.112
65.138	546.158	-32.121
65.146	546.240	-32.130
65.154	546.322	-32.140
65.163	546.404	-32.149
65.171	546.488	-32.158
65.179	546.567	-32.166
65.188	546.653	-32.177
65.196	546.738	-32.185
65.204	546.821	-32.194
65.213	546.903	-32.202
65.221	546.989	-32.211
65.229	547.070	-32.220
65.238	547.151	-32.229
65.246	547.237	-32.238
65.254	547.318	-32.246
65.263	547.402	-32.255
65.271	547.486	-32.263
65.279	547.566	-32.272
65.288	547.654	-32.281
65.296	547.734	-32.289
65.304	547.817	-32.298
65.313	547.901	-32.307
65.321	547.983	-32.315
65.329	548.066	-32.325
65.338	548.150	-32.334
65.346	548.232	-32.344
65.354	548.317	-32.354
65.363	548.400	-32.363
65.371	548.481	-32.372
65.379	548.565	-32.382
65.388	548.648	-32.392
65.396	548.728	-32.402
65.404	548.813	-32.411
65.413	548.901	-32.421
65.421	548.978	-32.430
65.429	549.064	-32.439
65.438	549.147	-32.448
65.446	549.231	-32.458
65.454	549.314	-32.467
65.463	549.397	-32.476
65.471	549.478	-32.485
65.479	549.563	-32.495
65.488	549.646	-32.505
65.496	549.732	-32.514
65.504	549.813	-32.524
65.513	549.893	-32.534
65.521	549.978	-32.544
65.529	550.060	-32.554
65.538	550.146	-32.564
65.546	550.229	-32.574
65.554	550.314	-32.584
65.563	550.395	-32.594
65.571	550.480	-32.604
65.579	550.564	-32.615
65.588	550.643	-32.625
65.596	550.730	-32.635
65.604	550.813	-32.645
65.613	550.895	-32.655
65.621	550.977	-32.665
65.629	551.058	-32.675
65.638	551.143	-32.685
65.646	551.227	-32.695
65.654	551.311	-32.706
65.663	551.392	-32.716
65.671	551.478	-32.727
65.679	551.561	-32.738
65.688	551.645	-32.749
65.696	551.726	-32.760
65.704	551.808	-32.770
65.713	551.896	-32.781
65.721	551.974	-32.793
65.729	552.059	-32.804
65.738	552.138	-32.815
65.746	552.222	-32.826
65.754	552.306	-32.837
65.763	552.388	-32.848
65.771	552.470	-32.859
65.779	552.552	-32.870
65.788	552.641	-32.882
65.796	552.718	-32.894
65.804	552.801	-32.906
65.813	552.885	-32.918
65.821	552.968	-32.929
65.829	553.055	-32.940
65.838	553.135	-32.951
65.846	553.216	-32.963
65.854	553.302	-32.975
65.863	553.386	-32.986
65.871	553.466	-32.997
65.879	553.549	-33.009
65.888	553.630	-33.020
65.896	553.713	-33.032
65.904	553.799	-33.042
65.913	553.882	-33.054
65.921	553.966	-33.066
65.929	554.045	-33.077
65.938	554.129	-33.088
65.946	554.211	-33.101
65.954	554.299	-33.113
65.963	554.379	-33.125
65.971	554.466	-33.137
65.979	554.544	-33.149
65.988	554.629	-33.161
65.996	554.712	-33.174
66.004	554.797	-33.186
66.013	554.877	-33.198
66.021	554.959	-33.210
66.029	555.044	-33.223
66.038	555.129	-33.235
66.046	555.207	-33.247
66.054	555.292	-33.259
66.063	555.378	-33.271
66.071	555.461	-33.283
66.079	555.541	-33.296
66.088	555.624	-33.309
66.096	555.711	-33.323
66.104	555.793	-33.335
66.113	555.876	-33.348
66.121	555.961	-33.361
66.129	556.043	-33.374
66.138	556.125	-33.388
66.146	556.207	-33.402
66.154	556.291	-33.417
66.163	556.372	-33.430
66.171	556.456	-33.445
66.179	556.538	-33.458
66.188	556.622	-33.472
66.196	556.705	-33.485
66.204	556.784	-33.499
66.213	556.869	-33.513
66.221	556.950	-33.526
66.229	557.033	-33.540
66.238	557.119	-33.552
66.246	557.201	-33.565
66.254	557.282	-33.578
66.263	557.367	-33.592
66.271	557.448	-33.606
66.279	557.531	-33.619
66.288	557.619	-33.632
66.296	557.698	-33.645
66.304	557.780	-33.658
66.313	557.865	-33.672
66.321	557.951	-33.686
66.329	558.028	-33.699
66.338	558.113	-33.713
66.346	558.196	-33.726
66.354	558.281	-33.740
66.363	558.364	-33.754
66.371	558.447	-33.768
66.379	558.529	-33.783
66.388	558.614	-33.797
66.396	558.693	-33.811
66.404	558.783	-33.826
66.413	558.864	-33.840
66.421	558.945	-33.853
66.429	559.028	-33.868
66.438	559.106	-33.882
66.446	559.197	-33.896
66.454	559.278	-33.910
66.463	559.357	-33.925
66.471	559.443	-33.939
66.479	559.528	-33.953
66.488	559.610	-33.966
66.496	559.692	-33.980
66.504	559.773	-33.994
66.513	559.860	-34.008
66.521	559.937	-34.022
66.529	560.025	-34.036
66.538	560.106	-34.050
66.546	560.188	-34.064
66.554	560.271	-34.078
66.563	560.358	-34.093
66.571	560.437	-34.108
66.579	560.521	-34.122
66.588	560.607	-34.137
66.596	560.688	-34.151
66.604	560.771	-34.166
66.613	560.856	-34.181
66.621	560.936	-34.196
66.629	561.023	-34.211
66.638	561.103	-34.225
66.646	561.184	-34.241
66.654	561.267	-34.256
66.663	561.350	-34.271
66.671	561.435	-34.286
66.679	561.519	-34.301
66.688	561.599	-34.315
66.696	561.682	-34.330
66.704	561.763	-34.344
66.713	561.846	-34.358
66.721	561.933	-34.371
66.729	562.015	-34.385
66.738	562.099	-34.399
66.746	562.179	-34.414
66.754	562.263	-34.429
66.763	562.346	-34.444
66.771	562.427	-34.459
66.779	562.509	-34.474
66.788	562.590	-34.489
66.796	562.678	-34.504
66.804	562.757	-34.519
66.813	562.841	-34.534
66.821	562.924	-34.548
66.829	563.010	-34.562
66.838	563.089	-34.576
66.846	563.173	-34.590
66.854	563.257	-34.605
66.863	563.342	-34.619
66.871	563.424	-34.634
66.879	563.506	-34.648
66.888	563.591	-34.664
66.896	563.672	-34.679
66.904	563.755	-34.694
66.913	563.836	-34.709
66.921	563.923	-34.724
66.929	564.005	-34.738
66.938	564.086	-34.752
66.946	564.170	-34.766
66.954	564.251	-34.782
66.963	564.337	-34.797
66.971	564.416	-34.811
66.979	564.503	-34.825
66.988	564.586	-34.840
66.996	564.667	-34.855
67.004	564.749	-34.871
67.013	564.830	-34.886
67.021	564.914	-34.902
67.029	564.996	-34.917
67.038	565.083	-34.932
67.046	565.167	-34.948
67.054	565.251	-34.964
67.063	565.329	-34.980
67.071	565.414	-34.996
67.079	565.497	-35.010
67.088	565.579	-35.025
67.096	565.665	-35.040
67.104	565.748	-35.055
67.113	565.832	-35.071
67.121	565.915	-35.085
67.129	565.999	-35.100
67.138	566.082	-35.114
67.146	566.162	-35.129
67.154	566.247	-35.144
67.163	566.328	-35.160
67.171	566.410	-35.176
67.179	566.492	-35.191
67.188	566.576	-35.206
67.196	566.657	-35.221
67.204	566.741	-35.237
67.213	566.824	-35.252
67.221	566.905	-35.268
67.229	566.990	-35.283
67.238	567.068	-35.298
67.246	567.157	-35.314
67.254	567.240	-35.329
67.263	567.320	-35.344
67.271	567.407	-35.360
67.279	567.488	-35.376
67.288	567.569	-35.391
67.296	567.658	-35.407
67.304	567.739	-35.422
67.313	567.819	-35.438
67.321	567.903	-35.454
67.329	567.983	-35.470
67.338	568.068	-35.487
67.346	568.151	-35.502
67.354	568.236	-35.518
67.363	568.318	-35.533
67.371	568.400	-35.549
67.379	568.483	-35.565
67.388	568.568	-35.582
67.396	568.648	-35.597
67.404	568.730	-35.613
67.413	568.817	-35.628
67.421	568.900	-35.643
67.429	568.982	-35.659
67.438	569.060	-35.675
67.446	569.142	-35.691
67.454	569.227	-35.706
67.463	569.310	-35.721
67.471	569.394	-35.736
67.479	569.475	-35.752
67.488	569.558	-35.766
67.496	569.640	-35.782
67.504	569.725	-35.796
67.513	569.809	-35.812
67.521	569.892	-35.827
67.529	569.974	-35.842
67.538	570.056	-35.858
67.546	570.142	-35.874
67.554	570.228	-35.890
67.563	570.308	-35.905
67.571	570.392	-35.921
67.579	570.476	-35.937
67.588	570.560	-35.953
67.596	570.638	-35.969
67.604	570.721	-35.984
67.613	570.804	-35.999
67.621	570.891	-36.015
67.629	570.975	-36.030
67.638	571.053	-36.047
67.646	571.134	-36.063
67.654	571.220	-36.079
67.663	571.305	-36.095
67.671	571.386	-36.111
67.679	571.469	-36.127
67.688	571.552	-36.143
67.696	571.633	-36.159
67.704	571.716	-36.175
67.713	571.801	-36.192
67.721	571.886	-36.207
67.729	571.967	-36.221
67.738	572.051	-36.237
67.746	572.131	-36.253
67.754	572.215	-36.269
67.763	572.298	-36.285
67.771	572.381	-36.301
67.779	572.463	-36.317
67.788	572.547	-36.332
67.796	572.629	-36.347
67.804	572.713	-36.363
67.813	572.793	-36.379
67.821	572.884	-36.394
67.829	572.961	-36.409
67.838	573.045	-36.425
67.846	573.128	-36.442
67.854	573.209	-36.458
67.863	573.292	-36.473
67.871	573.378	-36.488
67.879	573.461	-36.504
67.888	573.546	-36.520
67.896	573.627	-36.535
67.904	573.710	-36.552
67.913	573.797	-36.568
67.921	573.876	-36.583
67.929	573.961	-36.598
67.938	574.041	-36.614
67.946	574.127	-36.630
67.954	574.211	-36.646
67.963	574.293	-36.662
67.971	574.377	-36.678
67.979	574.455	-36.694
67.988	574.541	-36.710
67.996	574.622	-36.726
68.004	574.706	-36.742
68.013	574.788	-36.758
68.021	574.872	-36.774
68.029	574.957	-36.790
68.038	575.038	-36.807
68.046	575.121	-36.824
68.054	575.205	-36.840
68.063	575.287	-36.856
68.071	575.373	-36.872
68.079	575.457	-36.888
68.088	575.539	-36.906
68.096	575.621	-36.922
68.104	575.704	-36.940
68.113	575.784	-36.956
68.121	575.863	-36.973
68.129	575.948	-36.989
68.138	576.030	-37.005
68.146	576.116	-37.021
68.154	576.196	-37.037
68.163	576.283	-37.054
68.171	576.365	-37.069
68.179	576.451	-37.086
68.188	576.532	-37.101
68.196	576.613	-37.118
68.204	576.697	-37.134
68.213	576.780	-37.151
68.221	576.861	-37.168
68.229	576.944	-37.185
68.238	577.028	-37.201
68.246	577.113	-37.217
68.254	577.193	-37.234
68.263	577.277	-37.251
68.271	577.360	-37.267
68.279	577.441	-37.284
68.288	577.528	-37.300
68.296	577.610	-37.317
68.304	577.696	-37.334
68.313	577.772	-37.351
68.321	577.862	-37.369
68.329	577.946	-37.386
68.338	578.031	-37.404
68.346	578.113	-37.421
68.354	578.196	-37.439
68.363	578.277	-37.456
68.371	578.362	-37.474
68.379	578.443	-37.491
68.388	578.526	-37.508
68.396	578.614	-37.525
68.404	578.694	-37.542
68.413	578.775	-37.560
68.421	578.857	-37.577
68.429	578.943	-37.594
68.438	579.023	-37.610
68.446	579.109	-37.627
68.454	579.190	-37.644
68.463	579.271	-37.661
68.471	579.354	-37.678
68.479	579.439	-37.696
68.488	579.520	-37.713
68.496	579.604	-37.730
68.504	579.687	-37.748
68.513	579.769	-37.764
68.521	579.853	-37.782
68.529	579.937	-37.800
68.538	580.018	-37.818
68.546	580.101	-37.835
68.554	580.180	-37.853
68.563	580.269	-37.871
68.571	580.350	-37.888
68.579	580.433	-37.906
68.588	580.518	-37.923
68.596	580.598	-37.941
68.604	580.682	-37.960
68.613	580.762	-37.977
68.621	580.845	-37.994
68.629	580.933	-38.012
68.638	581.013	-38.029
68.646	581.097	-38.047
68.654	581.181	-38.066
68.663	581.265	-38.085
68.671	581.344	-38.103
68.679	581.430	-38.122
68.688	581.510	-38.140
68.696	581.596	-38.158
68.704	581.676	-38.176
68.713	581.758	-38.194
68.721	581.845	-38.213
68.729	581.926	-38.230
68.738	582.008	-38.248
68.746	582.093	-38.266
68.754	582.176	-38.283
68.763	582.256	-38.300
68.771	582.339	-38.317
68.779	582.422	-38.335
68.788	582.505	-38.354
68.796	582.587	-38.372
68.804	582.666	-38.390
68.813	582.751	-38.408
68.821	582.836	-38.425
68.829	582.915	-38.442
68.838	582.999	-38.461
68.846	583.082	-38.478
68.854	583.167	-38.495
68.863	583.250	-38.513
68.871	583.333	-38.530
68.879	583.412	-38.547
68.888	583.496	-38.564
68.896	583.579	-38.581
68.904	583.663	-38.598
68.913	583.742	-38.615
68.921	583.825	-38.633
68.929	583.911	-38.650
68.938	583.992	-38.668
68.946	584.077	-38.685
68.954	584.161	-38.702
68.963	584.245	-38.720
68.971	584.325	-38.738
68.979	584.408	-38.756
68.988	584.491	-38.774
68.996	584.577	-38.792
69.004	584.661	-38.809
69.013	584.742	-38.827
69.021	584.821	-38.845
69.029	584.907	-38.863
69.038	584.988	-38.881
69.046	585.072	-38.898
69.054	585.156	-38.915
69.063	585.237	-38.932
69.071	585.320	-38.950
69.079	585.407	-38.968
69.088	585.487	-38.986
69.096	585.571	-39.004
69.104	585.649	-39.021
69.113	585.734	-39.039
69.121	585.821	-39.057
69.129	585.896	-39.075
69.138	585.979	-39.093
69.146	586.067	-39.110
69.154	586.151	-39.127
69.163	586.234	-39.145
69.171	586.314	-39.164
69.179	586.402	-39.182
69.188	586.483	-39.200
69.196	586.565	-39.218
69.204	586.650	-39.237
69.213	586.732	-39.256
69.221	586.814	-39.274
69.229	586.899	-39.293
69.238	586.981	-39.312
69.246	587.062	-39.330
69.254	587.148	-39.348
69.263	587.229	-39.366
69.271	587.313	-39.385
69.279	587.394	-39.402
69.288	587.476	-39.420
69.296	587.560	-39.438
69.304	587.644	-39.457
69.313	587.727	-39.475
69.321	587.807	-39.493
69.329	587.891	-39.511
69.338	587.975	-39.530
69.346	588.057	-39.548
69.354	588.142	-39.567
69.363	588.223	-39.586
69.371	588.306	-39.604
69.379	588.391	-39.623
69.388	588.474	-39.641
69.396	588.558	-39.661
69.404	588.638	-39.681
69.413	588.719	-39.699
69.421	588.804	-39.718
69.429	588.888	-39.737
69.438	588.974	-39.755
69.446	589.052	-39.774
69.454	589.138	-39.793
69.463	589.221	-39.812
69.471	589.302	-39.831
69.479	589.380	-39.849
69.488	589.468	-39.868
69.496	589.545	-39.887
69.504	589.635	-39.906
69.513	589.711	-39.924
69.521	589.797	-39.943
69.529	589.880	-39.961
69.538	589.965	-39.980
69.546	590.049	-39.999
69.554	590.128	-40.018
69.563	590.212	-40.038
69.571	590.294	-40.057
69.579	590.376	-40.076
69.588	590.461	-40.095
69.596	590.544	-40.114
69.604	590.625	-40.133
69.613	590.710	-40.152
69.621	590.791	-40.170
69.629	590.878	-40.189
69.638	590.955	-40.207
69.646	591.039	-40.224
69.654	591.125	-40.243
69.663	591.199	-40.261
69.671	591.289	-40.280
69.679	591.371	-40.299
69.688	591.455	-40.318
69.696	591.538	-40.337
69.704	591.620	-40.356
69.713	591.705	-40.374
69.721	591.788	-40.393
69.729	591.870	-40.412
69.738	591.952	-40.431
69.746	592.035	-40.450
69.754	592.121	-40.468
69.763	592.197	-40.488
69.771	592.285	-40.507
69.779	592.370	-40.526
69.788	592.450	-40.544
69.796	592.534	-40.564
69.804	592.618	-40.582
69.813	592.699	-40.601
69.821	592.785	-40.620
69.829	592.869	-40.639
69.838	592.950	-40.659
69.846	593.033	-40.678
69.854	593.113	-40.697
69.863	593.197	-40.716
69.871	593.284	-40.736
69.879	593.362	-40.756
69.888	593.444	-40.776
69.896	593.527	-40.796
69.904	593.614	-40.815
69.913	593.694	-40.836
69.921	593.780	-40.856
69.929	593.860	-40.875
69.938	593.944	-40.896
69.946	594.027	-40.917
69.954	594.108	-40.936
69.963	594.192	-40.956
69.971	594.274	-40.976
69.979	594.356	-40.996
69.988	594.443	-41.017
69.996	594.525	-41.037
70.004	594.604	-41.057
70.013	594.689	-41.077
70.021	594.771	-41.097
70.029	594.857	-41.117
70.038	594.937	-41.137
70.046	595.020	-41.158
70.054	595.105	-41.179
70.063	595.188	-41.199
70.071	595.270	-41.219
70.079	595.351	-41.240
70.088	595.437	-41.260
70.096	595.520	-41.280
70.104	595.605	-41.301
70.113	595.683	-41.322
70.121	595.766	-41.342
70.129	595.847	-41.363
70.138	595.932	-41.384
70.146	596.016	-41.404
70.154	596.100	-41.425
70.163	596.175	-41.446
70.171	596.263	-41.467
70.179	596.347	-41.487
70.188	596.428	-41.507
70.196	596.515	-41.528
70.204	596.598	-41.549
70.213	596.674	-41.571
70.221	596.763	-41.593
70.229	596.844	-41.614
70.238	596.928	-41.636
70.246	597.008	-41.657
70.254	597.089	-41.679
70.263	597.176	-41.701
70.271	597.256	-41.722
70.279	597.341	-41.743
70.288	597.421	-41.762
70.296	597.504	-41.782
70.304	597.587	-41.801
70.313	597.666	-41.822
70.321	597.752	-41.842
70.329	597.836	-41.862
70.338	597.916	-41.882
70.346	598.004	-41.903
70.354	598.086	-41.924
70.363	598.168	-41.945
70.371	598.254	-41.968
70.379	598.332	-41.990
70.388	598.416	-42.011
70.396	598.498	-42.032
70.404	598.580	-42.053
70.413	598.664	-42.074
70.421	598.746	-42.095
70.429	598.829	-42.115
70.438	598.911	-42.136
70.446	598.994	-42.157
70.454	599.078	-42.177
70.463	599.159	-42.197
70.471	599.246	-42.218
70.479	599.327	-42.239
70.488	599.406	-42.260
70.496	599.486	-42.282
70.504	599.574	-42.304
70.513	599.655	-42.325
70.521	599.738	-42.346
70.529	599.821	-42.367
70.538	599.903	-42.389
70.546	599.986	-42.410
70.554	600.071	-42.432
70.563	600.155	-42.454
70.571	600.235	-42.474
70.579	600.314	-42.496
70.588	600.399	-42.517
70.596	600.483	-42.539
70.604	600.565	-42.561
70.613	600.647	-42.582
70.621	600.728	-42.604
70.629	600.813	-42.625
70.638	600.897	-42.647
70.646	600.980	-42.668
70.654	601.061	-42.689
70.663	601.143	-42.710
70.671	601.225	-42.731
70.679	601.311	-42.752
70.688	601.392	-42.773
70.696	601.478	-42.794
70.704	601.560	-42.816
70.713	601.643	-42.838
70.721	601.723	-42.860
70.729	601.809	-42.882
70.738	601.889	-42.904
70.746	601.975	-42.927
70.754	602.057	-42.949
70.763	602.139	-42.972
70.771	602.222	-42.995
70.779	602.303	-43.018
70.788	602.388	-43.040
70.796	602.471	-43.063
70.804	602.552	-43.085
70.813	602.635	-43.108
70.821	602.717	-43.131
70.829	602.799	-43.153
70.838	602.884	-43.175
70.846	602.967	-43.197
70.854	603.048	-43.220
70.863	603.133	-43.242
70.871	603.218	-43.264
70.879	603.297	-43.285
70.888	603.381	-43.308
70.896	603.463	-43.329
70.904	603.545	-43.351
70.913	603.629	-43.374
70.921	603.714	-43.397
70.929	603.793	-43.419
70.938	603.876	-43.441
70.946	603.960	-43.464
70.954	604.045	-43.488
70.963	604.127	-43.511
70.971	604.210	-43.535
70.979	604.293	-43.558
70.988	604.372	-43.582
70.996	604.458	-43.605
71.004	604.539	-43.628
71.013	604.619	-43.652
71.021	604.702	-43.676
71.029	604.790	-43.700
71.038	604.868	-43.723
71.046	604.952	-43.748
71.054	605.036	-43.771
71.063	605.120	-43.794
71.071	605.203	-43.818
71.079	605.284	-43.841
71.088	605.367	-43.865
71.096	605.449	-43.889
71.104	605.533	-43.912
71.113	605.620	-43.936
71.121	605.700	-43.960
71.129	605.780	-43.983
71.138	605.866	-44.007
71.146	605.949	-44.032
71.154	606.031	-44.056
71.163	606.111	-44.079
71.171	606.193	-44.103
71.179	606.280	-44.128
71.188	606.361	-44.152
71.196	606.443	-44.177
71.204	606.524	-44.202
71.213	606.607	-44.227
71.221	606.694	-44.252
71.229	606.775	-44.277
71.238	606.859	-44.302
71.246	606.939	-44.327
71.254	607.021	-44.353
71.263	607.104	-44.379
71.271	607.186	-44.404
71.279	607.270	-44.429
71.288	607.353	-44.453
71.296	607.440	-44.478
71.304	607.517	-44.503
71.313	607.603	-44.529
71.321	607.683	-44.554
71.329	607.767	-44.579
71.338	607.846	-44.604
71.346	607.933	-44.630
71.354	608.015	-44.656
71.363	608.096	-44.681
71.371	608.178	-44.708
71.379	608.261	-44.733
71.388	608.346	-44.759
71.396	608.426	-44.784
71.404	608.508	-44.810
71.413	608.594	-44.836
71.421	608.672	-44.861
71.429	608.755	-44.887
71.438	608.838	-44.913
71.446	608.921	-44.938
71.454	609.007	-44.964
71.463	609.087	-44.990
71.471	609.169	-45.017
71.479	609.251	-45.043
71.488	609.332	-45.070
71.496	609.418	-45.095
71.504	609.502	-45.121
71.513	609.582	-45.147
71.521	609.663	-45.173
71.529	609.748	-45.200
71.538	609.832	-45.226
71.546	609.913	-45.251
71.554	609.997	-45.277
71.563	610.078	-45.303
71.571	610.163	-45.329
71.579	610.244	-45.355
71.588	610.327	-45.383
71.596	610.411	-45.410
71.604	610.493	-45.436
71.613	610.574	-45.463
71.621	610.657	-45.491
71.629	610.739	-45.519
71.638	610.823	-45.546
71.646	610.907	-45.572
71.654	610.990	-45.599
71.663	611.070	-45.626
71.671	611.154	-45.654
71.679	611.237	-45.682
71.688	611.320	-45.709
71.696	611.400	-45.737
71.704	611.485	-45.763
71.713	611.565	-45.790
71.721	611.648	-45.817
71.729	611.730	-45.845
71.738	611.816	-45.873
71.746	611.897	-45.900
71.754	611.979	-45.927
71.763	612.061	-45.954
71.771	612.143	-45.981
71.779	612.226	-46.008
71.788	612.306	-46.037
71.796	612.389	-46.065
71.804	612.473	-46.093
71.813	612.553	-46.121
71.821	612.638	-46.150
71.829	612.721	-46.178
71.838	612.805	-46.206
71.846	612.889	-46.234
71.854	612.971	-46.263
71.863	613.052	-46.293
71.871	613.134	-46.322
71.879	613.214	-46.351
71.888	613.298	-46.381
71.896	613.383	-46.410
71.904	613.464	-46.439
71.913	613.545	-46.469
71.921	613.628	-46.499
71.929	613.712	-46.529
71.938	613.792	-46.558
71.946	613.876	-46.588
71.954	613.960	-46.618
71.963	614.040	-46.647
71.971	614.123	-46.678
71.979	614.205	-46.708
71.988	614.288	-46.739
71.996	614.367	-46.770
72.004	614.453	-46.800
72.013	614.538	-46.830
72.021	614.619	-46.861
72.029	614.699	-46.891
72.038	614.785	-46.922
72.046	614.866	-46.953
72.054	614.949	-46.985
72.063	615.033	-47.016
72.071	615.113	-47.047
72.079	615.194	-47.079
72.088	615.278	-47.111
72.096	615.360	-47.143
72.104	615.443	-47.175
72.113	615.523	-47.207
72.121	615.611	-47.239
72.129	615.692	-47.271
72.138	615.776	-47.303
72.146	615.855	-47.336
72.154	615.942	-47.370
72.163	616.022	-47.402
72.171	616.106	-47.435
72.179	616.188	-47.469
72.188	616.266	-47.503
72.196	616.352	-47.537
72.204	616.433	-47.570
72.213	616.516	-47.605
72.221	616.600	-47.639
