t /s	T /°C	HF /mw
16.130	150.071	-0.997
16.138	150.155	-0.997
16.146	150.238	-0.996
16.155	150.321	-0.996
16.163	150.405	-0.995
16.171	150.489	-0.995
16.180	150.572	-0.995
16.188	150.655	-0.994
16.196	150.738	-0.994
16.205	150.821	-0.994
16.213	150.905	-0.993
16.221	150.989	-0.993
16.230	151.072	-0.993
16.238	151.155	-0.992
16.246	151.238	-0.992
16.255	151.321	-0.991
16.263	151.405	-0.991
16.271	151.488	-0.991
16.280	151.572	-0.990
16.288	151.655	-0.990
16.296	151.738	-0.990
16.305	151.822	-0.989
16.313	151.905	-0.989
16.321	151.988	-0.989
16.330	152.072	-0.988
16.338	152.155	-0.988
16.346	152.238	-0.987
16.355	152.322	-0.987
16.363	152.405	-0.987
16.371	152.489	-0.986
16.380	152.572	-0.986
16.388	152.655	-0.986
16.396	152.739	-0.985
16.405	152.821	-0.985
16.413	152.906	-0.984
16.421	152.989	-0.984
16.430	153.072	-0.984
16.438	153.155	-0.983
16.446	153.238	-0.983
16.455	153.322	-0.983
16.463	153.405	-0.982
16.471	153.489	-0.982
16.480	153.572	-0.982
16.488	153.655	-0.981
16.496	153.739	-0.981
16.505	153.822	-0.980
16.513	153.905	-0.980
16.521	153.989	-0.980
16.530	154.072	-0.979
16.538	154.155	-0.979
16.546	154.239	-0.979
16.555	154.322	-0.978
16.563	154.405	-0.978
16.571	154.489	-0.978
16.580	154.572	-0.977
16.588	154.655	-0.977
16.596	154.739	-0.977
16.605	154.823	-0.976
16.613	154.905	-0.976
16.621	154.989	-0.976
16.630	155.072	-0.975
16.638	155.155	-0.975
16.646	155.239	-0.975
16.655	155.322	-0.974
16.663	155.406	-0.974
16.671	155.489	-0.974
16.680	155.573	-0.973
16.688	155.656	-0.973
16.696	155.739	-0.973
16.705	155.822	-0.972
16.713	155.906	-0.972
16.721	155.989	-0.972
16.730	156.072	-0.971
16.738	156.155	-0.971
16.746	156.239	-0.971
16.755	156.323	-0.970
16.763	156.405	-0.970
16.771	156.489	-0.970
16.780	156.572	-0.969
16.788	156.655	-0.969
16.796	156.739	-0.969
16.805	156.822	-0.968
16.813	156.906	-0.968
16.821	156.989	-0.968
16.830	157.072	-0.967
16.838	157.156	-0.967
16.846	157.239	-0.967
16.855	157.322	-0.966
16.863	157.406	-0.966
16.871	157.489	-0.966
16.880	157.572	-0.965
16.888	157.656	-0.965
16.896	157.739	-0.965
16.905	157.823	-0.964
16.913	157.906	-0.964
16.921	157.989	-0.964
16.930	158.073	-0.963
16.938	158.155	-0.963
16.946	158.239	-0.963
16.955	158.322	-0.962
16.963	158.406	-0.962
16.971	158.490	-0.962
16.980	158.572	-0.961
16.988	158.656	-0.961
16.996	158.739	-0.961
17.005	158.822	-0.960
17.013	158.906	-0.960
17.021	158.989	-0.960
17.030	159.072	-0.959
17.038	159.155	-0.959
17.046	159.239	-0.959
17.055	159.322	-0.958
17.063	159.405	-0.958
17.071	159.489	-0.958
17.080	159.572	-0.957
17.088	159.655	-0.957
17.096	159.739	-0.957
17.105	159.822	-0.957
17.113	159.905	-0.956
17.121	159.988	-0.956
17.130	160.072	-0.956
17.138	160.155	-0.955
17.146	160.239	-0.955
17.155	160.322	-0.955
17.163	160.405	-0.955
17.171	160.489	-0.954
17.180	160.572	-0.954
17.188	160.655	-0.954
17.196	160.738	-0.954
17.205	160.822	-0.953
17.213	160.906	-0.953
17.221	160.989	-0.953
17.230	161.072	-0.953
17.238	161.155	-0.952
17.246	161.238	-0.952
17.255	161.322	-0.952
17.263	161.405	-0.951
17.271	161.489	-0.951
17.280	161.572	-0.951
17.288	161.656	-0.950
17.296	161.739	-0.950
17.305	161.822	-0.950
17.313	161.905	-0.949
17.321	161.989	-0.949
17.330	162.072	-0.949
17.338	162.155	-0.948
17.346	162.239	-0.948
17.355	162.322	-0.948
17.363	162.406	-0.947
17.371	162.489	-0.947
17.380	162.573	-0.947
17.388	162.656	-0.947
17.396	162.739	-0.946
17.405	162.822	-0.946
17.413	162.904	-0.946
17.421	162.988	-0.945
17.430	163.072	-0.945
17.438	163.156	-0.945
17.446	163.239	-0.945
17.455	163.322	-0.944
17.463	163.405	-0.944
17.471	163.489	-0.944
17.480	163.572	-0.944
17.488	163.656	-0.943
17.496	163.739	-0.943
17.505	163.822	-0.943
17.513	163.906	-0.943
17.521	163.989	-0.943
17.530	164.071	-0.943
17.538	164.155	-0.942
17.546	164.238	-0.942
17.555	164.321	-0.942
17.563	164.405	-0.942
17.571	164.488	-0.942
17.580	164.572	-0.942
17.588	164.655	-0.942
17.596	164.738	-0.941
17.605	164.822	-0.941
17.613	164.905	-0.941
17.621	164.989	-0.941
17.630	165.072	-0.941
17.638	165.155	-0.941
17.646	165.238	-0.941
17.655	165.321	-0.941
17.663	165.405	-0.940
17.671	165.488	-0.940
17.680	165.572	-0.940
17.688	165.655	-0.940
17.696	165.738	-0.940
17.705	165.822	-0.940
17.713	165.905	-0.940
17.721	165.988	-0.940
17.730	166.071	-0.939
17.738	166.155	-0.939
17.746	166.238	-0.939
17.755	166.322	-0.939
17.763	166.405	-0.939
17.771	166.488	-0.939
17.780	166.572	-0.939
17.788	166.655	-0.939
17.796	166.738	-0.939
17.805	166.821	-0.939
17.813	166.905	-0.939
17.821	166.988	-0.939
17.830	167.072	-0.939
17.838	167.155	-0.939
17.846	167.237	-0.938
17.855	167.322	-0.938
17.863	167.405	-0.938
17.871	167.489	-0.938
17.880	167.572	-0.938
17.888	167.656	-0.938
17.896	167.739	-0.938
17.905	167.822	-0.938
17.913	167.905	-0.938
17.921	167.988	-0.938
17.930	168.072	-0.938
17.938	168.155	-0.938
17.946	168.239	-0.938
17.955	168.322	-0.937
17.963	168.405	-0.937
17.971	168.488	-0.937
17.980	168.572	-0.937
17.988	168.656	-0.937
17.996	168.739	-0.937
18.005	168.822	-0.937
18.013	168.906	-0.937
18.021	168.989	-0.937
18.030	169.072	-0.937
18.038	169.156	-0.937
18.046	169.239	-0.936
18.055	169.322	-0.936
18.063	169.405	-0.936
18.071	169.489	-0.936
18.080	169.572	-0.936
18.088	169.655	-0.936
18.096	169.738	-0.936
18.105	169.822	-0.936
18.113	169.905	-0.936
18.121	169.989	-0.935
18.130	170.072	-0.935
18.138	170.155	-0.935
18.146	170.238	-0.935
18.155	170.322	-0.935
18.163	170.405	-0.935
18.171	170.489	-0.935
18.180	170.572	-0.935
18.188	170.655	-0.935
18.196	170.739	-0.935
18.205	170.821	-0.935
18.213	170.905	-0.935
18.221	170.988	-0.935
18.230	171.072	-0.934
18.238	171.155	-0.934
18.246	171.238	-0.934
18.255	171.321	-0.934
18.263	171.405	-0.934
18.271	171.489	-0.934
18.280	171.572	-0.934
18.288	171.655	-0.934
18.296	171.738	-0.934
18.305	171.821	-0.934
18.313	171.905	-0.934
18.321	171.989	-0.934
18.330	172.071	-0.933
18.338	172.155	-0.933
18.346	172.239	-0.933
18.355	172.322	-0.933
18.363	172.405	-0.933
18.371	172.488	-0.933
18.380	172.571	-0.933
18.388	172.655	-0.933
18.396	172.738	-0.933
18.405	172.821	-0.933
18.413	172.905	-0.933
18.421	172.988	-0.933
18.430	173.071	-0.932
18.438	173.154	-0.932
18.446	173.238	-0.932
18.455	173.321	-0.932
18.463	173.404	-0.932
18.471	173.488	-0.932
18.480	173.571	-0.932
18.488	173.655	-0.932
18.496	173.738	-0.932
18.505	173.821	-0.931
18.513	173.905	-0.931
18.521	173.988	-0.931
18.530	174.071	-0.931
18.538	174.154	-0.931
18.546	174.237	-0.931
18.555	174.321	-0.931
18.563	174.404	-0.930
18.571	174.488	-0.930
18.580	174.571	-0.930
18.588	174.654	-0.930
18.596	174.737	-0.930
18.605	174.821	-0.930
18.613	174.904	-0.930
18.621	174.988	-0.929
18.630	175.071	-0.929
18.638	175.155	-0.929
18.646	175.238	-0.929
18.655	175.321	-0.929
18.663	175.405	-0.929
18.671	175.488	-0.929
18.680	175.571	-0.928
18.688	175.655	-0.928
18.696	175.738	-0.928
18.705	175.821	-0.928
18.713	175.905	-0.928
18.721	175.987	-0.928
18.730	176.071	-0.928
18.738	176.154	-0.928
18.746	176.238	-0.928
18.755	176.321	-0.927
18.763	176.405	-0.927
18.771	176.488	-0.927
18.780	176.572	-0.927
18.788	176.655	-0.927
18.796	176.738	-0.927
18.805	176.821	-0.927
18.813	176.905	-0.927
18.821	176.988	-0.926
18.830	177.071	-0.926
18.838	177.155	-0.926
18.846	177.238	-0.926
18.855	177.321	-0.926
18.863	177.405	-0.926
18.871	177.488	-0.926
18.880	177.571	-0.925
18.888	177.655	-0.925
18.896	177.738	-0.925
18.905	177.822	-0.925
18.913	177.905	-0.925
18.921	177.988	-0.925
18.930	178.071	-0.925
18.938	178.154	-0.924
18.946	178.238	-0.924
18.955	178.321	-0.924
18.963	178.405	-0.924
18.971	178.488	-0.924
18.980	178.571	-0.924
18.988	178.654	-0.923
18.996	178.738	-0.923
19.005	178.821	-0.923
19.013	178.905	-0.923
19.021	178.988	-0.923
19.030	179.072	-0.923
19.038	179.155	-0.922
19.046	179.238	-0.922
19.055	179.321	-0.922
19.063	179.404	-0.922
19.071	179.489	-0.922
19.080	179.572	-0.922
19.088	179.655	-0.921
19.096	179.739	-0.921
19.105	179.821	-0.921
19.113	179.905	-0.921
19.121	179.988	-0.921
19.130	180.071	-0.921
19.138	180.155	-0.920
19.146	180.238	-0.920
19.155	180.321	-0.920
19.163	180.404	-0.920
19.171	180.488	-0.920
19.180	180.571	-0.919
19.188	180.654	-0.919
19.196	180.738	-0.919
19.205	180.821	-0.919
19.213	180.905	-0.919
19.221	180.988	-0.919
19.230	181.071	-0.918
19.238	181.155	-0.918
19.246	181.238	-0.918
19.255	181.321	-0.918
19.263	181.405	-0.918
19.271	181.488	-0.917
19.280	181.572	-0.917
19.288	181.655	-0.917
19.296	181.738	-0.917
19.305	181.821	-0.917
19.313	181.905	-0.917
19.321	181.988	-0.916
19.330	182.072	-0.916
19.338	182.155	-0.916
19.346	182.238	-0.916
19.355	182.322	-0.916
19.363	182.404	-0.916
19.371	182.488	-0.915
19.380	182.571	-0.915
19.388	182.655	-0.915
19.396	182.738	-0.915
19.405	182.821	-0.915
19.413	182.904	-0.914
19.421	182.988	-0.914
19.430	183.071	-0.914
19.438	183.155	-0.914
19.446	183.238	-0.914
19.455	183.322	-0.914
19.463	183.405	-0.914
19.471	183.488	-0.913
19.480	183.572	-0.913
19.488	183.655	-0.913
19.496	183.738	-0.913
19.505	183.821	-0.913
19.513	183.905	-0.913
19.521	183.988	-0.913
19.530	184.071	-0.912
19.538	184.155	-0.912
19.546	184.238	-0.912
19.555	184.321	-0.912
19.563	184.404	-0.912
19.571	184.488	-0.912
19.580	184.571	-0.911
19.588	184.655	-0.911
19.596	184.738	-0.911
19.605	184.821	-0.911
19.613	184.904	-0.911
19.621	184.987	-0.911
19.630	185.070	-0.910
19.638	185.154	-0.910
19.646	185.237	-0.910
19.655	185.321	-0.910
19.663	185.404	-0.910
19.671	185.487	-0.910
19.680	185.571	-0.909
19.688	185.654	-0.909
19.696	185.737	-0.909
19.705	185.821	-0.909
19.713	185.905	-0.909
19.721	185.987	-0.909
19.730	186.071	-0.909
19.738	186.154	-0.909
19.746	186.238	-0.909
19.755	186.321	-0.909
19.763	186.405	-0.909
19.771	186.488	-0.909
19.780	186.571	-0.908
19.788	186.654	-0.908
19.796	186.738	-0.908
19.805	186.820	-0.908
19.813	186.904	-0.908
19.821	186.988	-0.908
19.830	187.070	-0.908
19.838	187.154	-0.908
19.846	187.237	-0.908
19.855	187.321	-0.908
19.863	187.404	-0.908
19.871	187.487	-0.908
19.880	187.571	-0.908
19.888	187.654	-0.908
19.896	187.737	-0.908
19.905	187.821	-0.908
19.913	187.904	-0.908
19.921	187.987	-0.908
19.930	188.070	-0.908
19.938	188.154	-0.908
19.946	188.237	-0.908
19.955	188.321	-0.908
19.963	188.404	-0.908
19.971	188.487	-0.908
19.980	188.571	-0.908
19.988	188.654	-0.907
19.996	188.737	-0.907
20.005	188.820	-0.907
20.013	188.904	-0.907
20.021	188.987	-0.907
20.030	189.070	-0.907
20.038	189.154	-0.907
20.046	189.238	-0.907
20.055	189.320	-0.907
20.063	189.403	-0.907
20.071	189.487	-0.907
20.080	189.571	-0.907
20.088	189.653	-0.907
20.096	189.737	-0.907
20.105	189.821	-0.907
20.113	189.904	-0.907
20.121	189.987	-0.907
20.130	190.070	-0.907
20.138	190.154	-0.907
20.146	190.237	-0.907
20.155	190.320	-0.907
20.163	190.403	-0.907
20.171	190.487	-0.907
20.180	190.570	-0.907
20.188	190.653	-0.907
20.196	190.737	-0.906
20.205	190.820	-0.906
20.213	190.904	-0.906
20.221	190.987	-0.906
20.230	191.070	-0.906
20.238	191.153	-0.906
20.246	191.237	-0.906
20.255	191.320	-0.906
20.263	191.404	-0.906
20.271	191.486	-0.906
20.280	191.570	-0.906
20.288	191.653	-0.905
20.296	191.737	-0.905
20.305	191.820	-0.905
20.313	191.903	-0.905
20.321	191.986	-0.905
20.330	192.070	-0.905
20.338	192.154	-0.905
20.346	192.237	-0.905
20.355	192.320	-0.905
20.363	192.403	-0.905
20.371	192.487	-0.904
20.380	192.570	-0.904
20.388	192.654	-0.904
20.396	192.736	-0.904
20.405	192.820	-0.904
20.413	192.904	-0.904
20.421	192.987	-0.904
20.430	193.070	-0.903
20.438	193.153	-0.903
20.446	193.237	-0.903
20.455	193.320	-0.903
20.463	193.403	-0.903
20.471	193.486	-0.903
20.480	193.570	-0.903
20.488	193.653	-0.903
20.496	193.737	-0.903
20.505	193.819	-0.902
20.513	193.903	-0.902
20.521	193.986	-0.902
20.530	194.069	-0.902
20.538	194.153	-0.902
20.546	194.237	-0.902
20.555	194.320	-0.902
20.563	194.403	-0.902
20.571	194.486	-0.902
20.580	194.569	-0.901
20.588	194.653	-0.901
20.596	194.736	-0.901
20.605	194.819	-0.901
20.613	194.903	-0.901
20.621	194.986	-0.901
20.630	195.069	-0.901
20.638	195.153	-0.901
20.646	195.236	-0.901
20.655	195.319	-0.901
20.663	195.403	-0.901
20.671	195.486	-0.901
20.680	195.569	-0.900
20.688	195.653	-0.900
20.696	195.735	-0.900
20.705	195.819	-0.900
20.713	195.903	-0.900
20.721	195.986	-0.900
20.730	196.069	-0.900
20.738	196.153	-0.900
20.746	196.236	-0.900
20.755	196.319	-0.900
20.763	196.403	-0.900
20.771	196.486	-0.900
20.780	196.569	-0.900
20.788	196.653	-0.900
20.796	196.736	-0.899
20.805	196.820	-0.899
20.813	196.903	-0.899
20.821	196.986	-0.899
20.830	197.069	-0.899
20.838	197.153	-0.899
20.846	197.236	-0.899
20.855	197.319	-0.899
20.863	197.402	-0.899
20.871	197.486	-0.899
20.880	197.569	-0.899
20.888	197.652	-0.898
20.896	197.736	-0.898
20.905	197.820	-0.898
20.913	197.903	-0.898
20.921	197.986	-0.898
20.930	198.069	-0.898
20.938	198.152	-0.898
20.946	198.236	-0.898
20.955	198.319	-0.898
20.963	198.403	-0.898
20.971	198.486	-0.898
20.980	198.570	-0.898
20.988	198.652	-0.898
20.996	198.736	-0.897
21.005	198.819	-0.897
21.013	198.903	-0.897
21.021	198.986	-0.897
21.030	199.069	-0.897
21.038	199.153	-0.897
21.046	199.236	-0.897
21.055	199.320	-0.897
21.063	199.403	-0.897
21.071	199.486	-0.897
21.080	199.570	-0.897
21.088	199.653	-0.896
21.096	199.737	-0.896
21.105	199.819	-0.896
21.113	199.903	-0.896
21.121	199.986	-0.896
21.130	200.069	-0.896
21.138	200.153	-0.896
21.146	200.236	-0.896
21.155	200.319	-0.896
21.163	200.403	-0.896
21.171	200.486	-0.895
21.180	200.569	-0.895
21.188	200.653	-0.895
21.196	200.736	-0.895
21.205	200.819	-0.895
21.213	200.903	-0.895
21.221	200.986	-0.895
21.230	201.070	-0.895
21.238	201.153	-0.895
21.246	201.236	-0.895
21.255	201.320	-0.895
21.263	201.403	-0.895
21.271	201.487	-0.894
21.280	201.570	-0.894
21.288	201.653	-0.894
21.296	201.736	-0.894
21.305	201.820	-0.894
21.313	201.903	-0.894
21.321	201.986	-0.894
21.330	202.070	-0.894
21.338	202.153	-0.894
21.346	202.236	-0.893
21.355	202.319	-0.893
21.363	202.403	-0.893
21.371	202.486	-0.893
21.380	202.569	-0.893
21.388	202.653	-0.893
21.396	202.736	-0.893
21.405	202.819	-0.893
21.413	202.902	-0.892
21.421	202.985	-0.892
21.430	203.069	-0.892
21.438	203.152	-0.892
21.446	203.235	-0.892
21.455	203.319	-0.892
21.463	203.402	-0.892
21.471	203.486	-0.892
21.480	203.569	-0.891
21.488	203.652	-0.891
21.496	203.735	-0.891
21.505	203.819	-0.891
21.513	203.902	-0.891
21.521	203.985	-0.891
21.530	204.069	-0.891
21.538	204.152	-0.890
21.546	204.235	-0.890
21.555	204.319	-0.890
21.563	204.402	-0.890
21.571	204.485	-0.890
21.580	204.569	-0.890
21.588	204.652	-0.890
21.596	204.735	-0.889
21.605	204.818	-0.889
21.613	204.902	-0.889
21.621	204.985	-0.889
21.630	205.068	-0.889
21.638	205.152	-0.889
21.646	205.235	-0.889
21.655	205.319	-0.888
21.663	205.402	-0.888
21.671	205.485	-0.888
21.680	205.569	-0.888
21.688	205.652	-0.888
21.696	205.735	-0.888
21.705	205.819	-0.888
21.713	205.902	-0.887
21.721	205.985	-0.887
21.730	206.069	-0.887
21.738	206.152	-0.887
21.746	206.235	-0.887
21.755	206.318	-0.887
21.763	206.402	-0.887
21.771	206.485	-0.886
21.780	206.568	-0.886
21.788	206.651	-0.886
21.796	206.735	-0.886
21.805	206.818	-0.886
21.813	206.901	-0.886
21.821	206.985	-0.886
21.830	207.068	-0.886
21.838	207.152	-0.885
21.846	207.235	-0.885
21.855	207.318	-0.885
21.863	207.401	-0.885
21.871	207.484	-0.885
21.880	207.568	-0.885
21.888	207.651	-0.885
21.896	207.734	-0.885
21.905	207.818	-0.884
21.913	207.901	-0.884
21.921	207.984	-0.884
21.930	208.068	-0.884
21.938	208.151	-0.884
21.946	208.234	-0.884
21.955	208.318	-0.884
21.963	208.401	-0.884
21.971	208.484	-0.883
21.980	208.567	-0.883
21.988	208.650	-0.883
21.996	208.734	-0.883
22.005	208.818	-0.883
22.013	208.901	-0.883
22.021	208.984	-0.883
22.030	209.067	-0.882
22.038	209.151	-0.882
22.046	209.234	-0.882
22.055	209.317	-0.882
22.063	209.401	-0.882
22.071	209.484	-0.882
22.080	209.568	-0.882
22.088	209.650	-0.881
22.096	209.734	-0.881
22.105	209.817	-0.881
22.113	209.901	-0.881
22.121	209.984	-0.881
22.130	210.067	-0.881
22.138	210.151	-0.881
22.146	210.234	-0.880
22.155	210.317	-0.880
22.163	210.400	-0.880
22.171	210.484	-0.880
22.180	210.567	-0.880
22.188	210.651	-0.880
22.196	210.734	-0.879
22.205	210.817	-0.879
22.213	210.900	-0.879
22.221	210.983	-0.879
22.230	211.067	-0.879
22.238	211.150	-0.879
22.246	211.234	-0.878
22.255	211.317	-0.878
22.263	211.400	-0.878
22.271	211.484	-0.878
22.280	211.567	-0.878
22.288	211.650	-0.878
22.296	211.734	-0.877
22.305	211.817	-0.877
22.313	211.900	-0.877
22.321	211.983	-0.877
22.330	212.066	-0.877
22.338	212.150	-0.877
22.346	212.233	-0.876
22.355	212.316	-0.876
22.363	212.400	-0.876
22.371	212.483	-0.876
22.380	212.567	-0.876
22.388	212.650	-0.876
22.396	212.733	-0.876
22.405	212.817	-0.875
22.413	212.899	-0.875
22.421	212.984	-0.875
22.430	213.067	-0.875
22.438	213.150	-0.875
22.446	213.233	-0.875
22.455	213.317	-0.875
22.463	213.400	-0.875
22.471	213.484	-0.874
22.480	213.566	-0.874
22.488	213.649	-0.874
22.496	213.733	-0.874
22.505	213.816	-0.874
22.513	213.900	-0.874
22.521	213.983	-0.874
22.530	214.067	-0.874
22.538	214.150	-0.873
22.546	214.234	-0.873
22.555	214.317	-0.873
22.563	214.400	-0.873
22.571	214.484	-0.873
22.580	214.567	-0.873
22.588	214.650	-0.873
22.596	214.734	-0.872
22.605	214.816	-0.872
22.613	214.900	-0.872
22.621	214.983	-0.872
22.630	215.067	-0.872
22.638	215.150	-0.872
22.646	215.233	-0.872
22.655	215.317	-0.871
22.663	215.400	-0.871
22.671	215.483	-0.871
22.680	215.567	-0.871
22.688	215.650	-0.871
22.696	215.733	-0.871
22.705	215.817	-0.871
22.713	215.900	-0.870
22.721	215.983	-0.870
22.730	216.066	-0.870
22.738	216.150	-0.870
22.746	216.233	-0.870
22.755	216.316	-0.870
22.763	216.399	-0.870
22.771	216.483	-0.869
22.780	216.567	-0.869
22.788	216.649	-0.869
22.796	216.733	-0.869
22.805	216.816	-0.869
22.813	216.899	-0.869
22.821	216.983	-0.869
22.830	217.066	-0.869
22.838	217.149	-0.868
22.846	217.233	-0.868
22.855	217.316	-0.868
22.863	217.399	-0.868
22.871	217.483	-0.868
22.880	217.566	-0.868
22.888	217.650	-0.868
22.896	217.733	-0.867
22.905	217.816	-0.867
22.913	217.899	-0.867
22.921	217.982	-0.867
22.930	218.066	-0.867
22.938	218.150	-0.867
22.946	218.233	-0.866
22.955	218.316	-0.866
22.963	218.399	-0.866
22.971	218.483	-0.866
22.980	218.566	-0.866
22.988	218.649	-0.866
22.996	218.733	-0.866
23.005	218.816	-0.866
23.013	218.899	-0.865
23.021	218.983	-0.865
23.030	219.066	-0.865
23.038	219.149	-0.865
23.046	219.232	-0.865
23.055	219.316	-0.865
23.063	219.399	-0.865
23.071	219.482	-0.864
23.080	219.565	-0.864
23.088	219.649	-0.864
23.096	219.733	-0.864
23.105	219.816	-0.864
23.113	219.899	-0.864
23.121	219.982	-0.864
23.130	220.066	-0.864
23.138	220.149	-0.864
23.146	220.232	-0.864
23.155	220.316	-0.864
23.163	220.398	-0.864
23.171	220.482	-0.864
23.180	220.565	-0.864
23.188	220.649	-0.864
23.196	220.732	-0.863
23.205	220.816	-0.863
23.213	220.899	-0.863
23.221	220.983	-0.863
23.230	221.065	-0.863
23.238	221.149	-0.863
23.246	221.232	-0.863
23.255	221.316	-0.863
23.263	221.399	-0.863
23.271	221.483	-0.863
23.280	221.565	-0.863
23.288	221.649	-0.863
23.296	221.732	-0.863
23.305	221.815	-0.863
23.313	221.899	-0.863
23.321	221.982	-0.863
23.330	222.066	-0.863
23.338	222.149	-0.863
23.346	222.232	-0.863
23.355	222.316	-0.863
23.363	222.399	-0.863
23.371	222.482	-0.863
23.380	222.566	-0.863
23.388	222.648	-0.863
23.396	222.732	-0.862
23.405	222.815	-0.862
23.413	222.898	-0.862
23.421	222.982	-0.862
23.430	223.066	-0.862
23.438	223.149	-0.862
23.446	223.232	-0.862
23.455	223.315	-0.862
23.463	223.398	-0.862
23.471	223.482	-0.862
23.480	223.565	-0.862
23.488	223.649	-0.862
23.496	223.732	-0.862
23.505	223.816	-0.861
23.513	223.899	-0.861
23.521	223.982	-0.861
23.530	224.066	-0.861
23.538	224.149	-0.861
23.546	224.232	-0.861
23.555	224.316	-0.861
23.563	224.399	-0.861
23.571	224.482	-0.861
23.580	224.565	-0.861
23.588	224.649	-0.861
23.596	224.732	-0.861
23.605	224.815	-0.861
23.613	224.898	-0.861
23.621	224.982	-0.861
23.630	225.065	-0.861
23.638	225.149	-0.861
23.646	225.232	-0.861
23.655	225.314	-0.861
23.663	225.398	-0.861
23.671	225.481	-0.861
23.680	225.565	-0.861
23.688	225.648	-0.861
23.696	225.731	-0.861
23.705	225.815	-0.861
23.713	225.898	-0.861
23.721	225.981	-0.861
23.730	226.064	-0.861
23.738	226.148	-0.861
23.746	226.231	-0.861
23.755	226.314	-0.861
23.763	226.398	-0.861
23.771	226.481	-0.861
23.780	226.565	-0.861
23.788	226.648	-0.861
23.796	226.731	-0.861
23.805	226.815	-0.861
23.813	226.898	-0.861
23.821	226.981	-0.861
23.830	227.064	-0.861
23.838	227.147	-0.861
23.846	227.230	-0.861
23.855	227.315	-0.861
23.863	227.398	-0.861
23.871	227.481	-0.862
23.880	227.564	-0.862
23.888	227.648	-0.862
23.896	227.731	-0.862
23.905	227.814	-0.862
23.913	227.897	-0.862
23.921	227.981	-0.862
23.930	228.064	-0.862
23.938	228.147	-0.862
23.946	228.231	-0.862
23.955	228.314	-0.862
23.963	228.397	-0.863
23.971	228.480	-0.863
23.980	228.564	-0.863
23.988	228.647	-0.863
23.996	228.731	-0.863
24.005	228.814	-0.863
24.013	228.897	-0.863
24.021	228.980	-0.864
24.030	229.064	-0.864
24.038	229.147	-0.864
24.046	229.231	-0.864
24.055	229.314	-0.864
24.063	229.397	-0.864
24.071	229.481	-0.864
24.080	229.564	-0.864
24.088	229.647	-0.865
24.096	229.731	-0.865
24.105	229.814	-0.865
24.113	229.897	-0.865
24.121	229.980	-0.865
24.130	230.064	-0.865
24.138	230.147	-0.866
24.146	230.231	-0.866
24.155	230.314	-0.866
24.163	230.397	-0.866
24.171	230.480	-0.866
24.180	230.564	-0.867
24.188	230.647	-0.867
24.196	230.730	-0.867
24.205	230.813	-0.867
24.213	230.897	-0.867
24.221	230.980	-0.868
24.230	231.063	-0.868
24.238	231.147	-0.868
24.246	231.229	-0.868
24.255	231.314	-0.868
24.263	231.397	-0.869
24.271	231.480	-0.869
24.280	231.563	-0.869
24.288	231.647	-0.869
24.296	231.730	-0.870
24.305	231.813	-0.870
24.313	231.897	-0.870
24.321	231.980	-0.870
24.330	232.063	-0.871
24.338	232.146	-0.871
24.346	232.229	-0.871
24.355	232.313	-0.871
24.363	232.396	-0.872
24.371	232.480	-0.872
24.380	232.563	-0.872
24.388	232.646	-0.872
24.396	232.729	-0.873
24.405	232.813	-0.873
24.413	232.897	-0.873
24.421	232.979	-0.874
24.430	233.063	-0.874
24.438	233.146	-0.874
24.446	233.230	-0.875
24.455	233.313	-0.875
24.463	233.396	-0.875
24.471	233.479	-0.875
24.480	233.563	-0.876
24.488	233.646	-0.876
24.496	233.729	-0.876
24.505	233.812	-0.877
24.513	233.895	-0.877
24.521	233.979	-0.877
24.530	234.062	-0.878
24.538	234.145	-0.878
24.546	234.228	-0.878
24.555	234.312	-0.879
24.563	234.395	-0.879
24.571	234.479	-0.879
24.580	234.562	-0.880
24.588	234.645	-0.880
24.596	234.728	-0.881
24.605	234.812	-0.881
24.613	234.895	-0.882
24.621	234.978	-0.882
24.630	235.061	-0.882
24.638	235.145	-0.883
24.646	235.228	-0.883
24.655	235.312	-0.884
24.663	235.395	-0.884
24.671	235.478	-0.885
24.680	235.561	-0.885
24.688	235.645	-0.886
24.696	235.728	-0.886
24.705	235.812	-0.887
24.713	235.895	-0.887
24.721	235.978	-0.888
24.730	236.061	-0.888
24.738	236.144	-0.889
24.746	236.227	-0.889
24.755	236.311	-0.890
24.763	236.394	-0.890
24.771	236.477	-0.891
24.780	236.561	-0.891
24.788	236.644	-0.892
24.796	236.727	-0.892
24.805	236.811	-0.893
24.813	236.894	-0.894
24.821	236.977	-0.894
24.830	237.060	-0.895
24.838	237.143	-0.896
24.846	237.226	-0.896
24.855	237.310	-0.897
24.863	237.394	-0.898
24.871	237.477	-0.898
24.880	237.560	-0.899
24.888	237.643	-0.900
24.896	237.727	-0.900
24.905	237.810	-0.901
24.913	237.893	-0.902
24.921	237.976	-0.902
24.930	238.059	-0.903
24.938	238.143	-0.904
24.946	238.226	-0.905
24.955	238.310	-0.905
24.963	238.393	-0.906
24.971	238.476	-0.907
24.980	238.559	-0.908
24.988	238.642	-0.909
24.996	238.726	-0.909
25.005	238.809	-0.910
25.013	238.892	-0.911
25.021	238.975	-0.912
25.030	239.059	-0.912
25.038	239.142	-0.913
25.046	239.225	-0.914
25.055	239.308	-0.915
25.063	239.391	-0.916
25.071	239.475	-0.916
25.080	239.558	-0.917
25.088	239.641	-0.918
25.096	239.725	-0.919
25.105	239.808	-0.920
25.113	239.890	-0.921
25.121	239.974	-0.922
25.130	240.057	-0.922
25.138	240.141	-0.923
25.146	240.224	-0.924
25.155	240.308	-0.925
25.163	240.390	-0.926
25.171	240.473	-0.927
25.180	240.557	-0.928
25.188	240.640	-0.929
25.196	240.723	-0.930
25.205	240.807	-0.931
25.213	240.890	-0.932
25.221	240.973	-0.933
25.230	241.056	-0.934
25.238	241.140	-0.935
25.246	241.223	-0.936
25.255	241.306	-0.937
25.263	241.390	-0.938
25.271	241.473	-0.939
25.280	241.555	-0.940
25.288	241.639	-0.941
25.296	241.722	-0.942
25.305	241.806	-0.943
25.313	241.889	-0.944
25.321	241.972	-0.945
25.330	242.056	-0.946
25.338	242.139	-0.947
25.346	242.222	-0.949
25.355	242.305	-0.950
25.363	242.388	-0.951
25.371	242.472	-0.952
25.380	242.555	-0.953
25.388	242.638	-0.954
25.396	242.721	-0.955
25.405	242.804	-0.957
25.413	242.888	-0.958
25.421	242.971	-0.959
25.430	243.054	-0.960
25.438	243.137	-0.961
25.446	243.221	-0.963
25.455	243.304	-0.964
25.463	243.387	-0.965
25.471	243.470	-0.966
25.480	243.554	-0.968
25.488	243.637	-0.969
25.496	243.720	-0.970
25.505	243.803	-0.971
25.513	243.887	-0.973
25.521	243.970	-0.974
25.530	244.053	-0.975
25.538	244.136	-0.976
25.546	244.219	-0.978
25.555	244.303	-0.979
25.563	244.386	-0.980
25.571	244.470	-0.982
25.580	244.553	-0.983
25.588	244.636	-0.984
25.596	244.719	-0.986
25.605	244.803	-0.987
25.613	244.886	-0.988
25.621	244.969	-0.990
25.630	245.052	-0.991
25.638	245.136	-0.992
25.646	245.219	-0.994
25.655	245.302	-0.995
25.663	245.385	-0.996
25.671	245.469	-0.998
25.680	245.552	-0.999
25.688	245.635	-1.001
25.696	245.718	-1.002
25.705	245.802	-1.003
25.713	245.885	-1.005
25.721	245.969	-1.006
25.730	246.052	-1.007
25.738	246.135	-1.009
25.746	246.218	-1.010
25.755	246.301	-1.011
25.763	246.384	-1.013
25.771	246.468	-1.014
25.780	246.551	-1.016
25.788	246.634	-1.017
25.796	246.717	-1.018
25.805	246.801	-1.020
25.813	246.884	-1.021
25.821	246.968	-1.023
25.830	247.051	-1.024
25.838	247.134	-1.025
25.846	247.217	-1.027
25.855	247.301	-1.028
25.863	247.384	-1.029
25.871	247.467	-1.031
25.880	247.550	-1.032
25.888	247.633	-1.033
25.896	247.717	-1.035
25.905	247.800	-1.036
25.913	247.884	-1.037
25.921	247.967	-1.039
25.930	248.051	-1.040
25.938	248.134	-1.041
25.946	248.217	-1.043
25.955	248.300	-1.044
25.963	248.383	-1.045
25.971	248.466	-1.047
25.980	248.549	-1.048
25.988	248.633	-1.049
25.996	248.716	-1.051
26.005	248.799	-1.052
26.013	248.883	-1.053
26.021	248.966	-1.054
26.030	249.049	-1.056
26.038	249.132	-1.057
26.046	249.216	-1.058
26.055	249.300	-1.059
26.063	249.382	-1.061
26.071	249.466	-1.062
26.080	249.549	-1.063
26.088	249.633	-1.064
26.096	249.716	-1.065
26.105	249.799	-1.066
26.113	249.882	-1.068
26.121	249.965	-1.069
26.130	250.049	-1.070
26.138	250.132	-1.071
26.146	250.215	-1.072
26.155	250.298	-1.073
26.163	250.381	-1.074
26.171	250.465	-1.075
26.180	250.548	-1.076
26.188	250.631	-1.077
26.196	250.715	-1.078
26.205	250.798	-1.079
26.213	250.881	-1.080
26.221	250.964	-1.081
26.230	251.048	-1.082
26.238	251.132	-1.083
26.246	251.215	-1.084
26.255	251.298	-1.085
26.263	251.381	-1.086
26.271	251.464	-1.087
26.280	251.547	-1.088
26.288	251.631	-1.089
26.296	251.714	-1.090
26.305	251.797	-1.091
26.313	251.881	-1.092
26.321	251.964	-1.093
26.330	252.047	-1.094
26.338	252.131	-1.095
26.346	252.214	-1.096
26.355	252.297	-1.097
26.363	252.381	-1.097
26.371	252.464	-1.098
26.380	252.547	-1.099
26.388	252.630	-1.100
26.396	252.714	-1.101
26.405	252.797	-1.102
26.413	252.880	-1.102
26.421	252.964	-1.103
26.430	253.047	-1.104
26.438	253.130	-1.105
26.446	253.213	-1.105
26.455	253.297	-1.106
26.463	253.380	-1.107
26.471	253.464	-1.108
26.480	253.547	-1.108
26.488	253.629	-1.109
26.496	253.714	-1.109
26.505	253.797	-1.110
26.513	253.880	-1.111
26.521	253.963	-1.111
26.530	254.046	-1.112
26.538	254.130	-1.112
26.546	254.213	-1.113
26.555	254.296	-1.113
26.563	254.380	-1.114
26.571	254.463	-1.114
26.580	254.547	-1.115
26.588	254.630	-1.115
26.596	254.713	-1.116
26.605	254.796	-1.116
26.613	254.880	-1.117
26.621	254.963	-1.117
26.630	255.046	-1.118
26.638	255.129	-1.118
26.646	255.213	-1.119
26.655	255.296	-1.119
26.663	255.380	-1.119
26.671	255.463	-1.120
26.680	255.546	-1.120
26.688	255.630	-1.120
26.696	255.712	-1.121
26.705	255.796	-1.121
26.713	255.879	-1.121
26.721	255.963	-1.121
26.730	256.046	-1.122
26.738	256.130	-1.122
26.746	256.213	-1.122
26.755	256.296	-1.122
26.763	256.380	-1.123
26.771	256.463	-1.123
26.780	256.546	-1.123
26.788	256.630	-1.123
26.796	256.713	-1.123
26.805	256.797	-1.123
26.813	256.880	-1.124
26.821	256.963	-1.124
26.830	257.046	-1.124
26.838	257.130	-1.124
26.846	257.213	-1.124
26.855	257.297	-1.124
26.863	257.380	-1.124
26.871	257.463	-1.124
26.880	257.547	-1.125
26.888	257.630	-1.125
26.896	257.713	-1.125
26.905	257.796	-1.125
26.913	257.880	-1.125
26.921	257.963	-1.125
26.930	258.047	-1.125
26.938	258.130	-1.125
26.946	258.213	-1.125
26.955	258.296	-1.125
26.963	258.380	-1.125
26.971	258.463	-1.125
26.980	258.546	-1.125
26.988	258.629	-1.125
26.996	258.713	-1.125
27.005	258.796	-1.125
27.013	258.880	-1.126
27.021	258.963	-1.126
27.030	259.046	-1.126
27.038	259.130	-1.126
27.046	259.213	-1.126
27.055	259.296	-1.126
27.063	259.380	-1.126
27.071	259.463	-1.126
27.080	259.547	-1.126
27.088	259.630	-1.126
27.096	259.713	-1.126
27.105	259.796	-1.126
27.113	259.879	-1.126
27.121	259.963	-1.126
27.130	260.046	-1.126
27.138	260.129	-1.126
27.146	260.213	-1.126
27.155	260.296	-1.126
27.163	260.380	-1.126
27.171	260.462	-1.126
27.180	260.546	-1.126
27.188	260.629	-1.126
27.196	260.712	-1.126
27.205	260.796	-1.126
27.213	260.879	-1.126
27.221	260.962	-1.126
27.230	261.046	-1.126
27.238	261.129	-1.126
27.246	261.212	-1.126
27.255	261.295	-1.126
27.263	261.379	-1.126
27.271	261.462	-1.126
27.280	261.546	-1.125
27.288	261.629	-1.126
27.296	261.712	-1.125
27.305	261.795	-1.125
27.313	261.878	-1.125
27.321	261.961	-1.125
27.330	262.045	-1.125
27.338	262.128	-1.125
27.346	262.212	-1.125
27.355	262.295	-1.125
27.363	262.379	-1.125
27.371	262.462	-1.125
27.380	262.544	-1.125
27.388	262.628	-1.125
27.396	262.712	-1.125
27.405	262.795	-1.125
27.413	262.878	-1.125
27.421	262.961	-1.125
27.430	263.045	-1.125
27.438	263.128	-1.125
27.446	263.211	-1.125
27.455	263.295	-1.124
27.463	263.378	-1.124
27.471	263.461	-1.124
27.480	263.545	-1.124
27.488	263.628	-1.124
27.496	263.711	-1.124
27.505	263.794	-1.124
27.513	263.878	-1.124
27.521	263.962	-1.124
27.530	264.044	-1.124
27.538	264.128	-1.124
27.546	264.211	-1.124
27.555	264.295	-1.124
27.563	264.378	-1.124
27.571	264.462	-1.124
27.580	264.545	-1.124
27.588	264.628	-1.123
27.596	264.710	-1.123
27.605	264.794	-1.123
27.613	264.877	-1.123
27.621	264.961	-1.123
27.630	265.044	-1.123
27.638	265.127	-1.123
27.646	265.211	-1.123
27.655	265.294	-1.123
27.663	265.378	-1.123
27.671	265.461	-1.122
27.680	265.544	-1.122
27.688	265.628	-1.122
27.696	265.711	-1.122
27.705	265.795	-1.122
27.713	265.878	-1.122
27.721	265.961	-1.122
27.730	266.044	-1.122
27.738	266.127	-1.122
27.746	266.211	-1.122
27.755	266.295	-1.122
27.763	266.378	-1.122
27.771	266.461	-1.121
27.780	266.544	-1.121
27.788	266.628	-1.121
27.796	266.711	-1.121
27.805	266.794	-1.121
27.813	266.877	-1.121
27.821	266.961	-1.121
27.830	267.044	-1.121
27.838	267.128	-1.120
27.846	267.211	-1.120
27.855	267.294	-1.120
27.863	267.378	-1.120
27.871	267.461	-1.120
27.880	267.544	-1.120
27.888	267.627	-1.120
27.896	267.711	-1.120
27.905	267.794	-1.119
27.913	267.878	-1.119
27.921	267.961	-1.119
27.930	268.044	-1.119
27.938	268.127	-1.119
27.946	268.211	-1.119
27.955	268.294	-1.118
27.963	268.377	-1.118
27.971	268.461	-1.118
27.980	268.544	-1.118
27.988	268.627	-1.118
27.996	268.710	-1.117
28.005	268.793	-1.117
28.013	268.877	-1.117
28.021	268.961	-1.117
28.030	269.044	-1.117
28.038	269.127	-1.116
28.046	269.210	-1.116
28.055	269.294	-1.116
28.063	269.377	-1.116
28.071	269.460	-1.116
28.080	269.543	-1.115
28.088	269.626	-1.115
28.096	269.710	-1.115
28.105	269.793	-1.115
28.113	269.877	-1.114
28.121	269.960	-1.114
28.130	270.044	-1.114
28.138	270.127	-1.114
28.146	270.210	-1.113
28.155	270.294	-1.113
28.163	270.377	-1.113
28.171	270.460	-1.113
28.180	270.544	-1.113
28.188	270.627	-1.112
28.196	270.710	-1.112
28.205	270.794	-1.112
28.213	270.877	-1.112
28.221	270.960	-1.112
28.230	271.044	-1.111
28.238	271.126	-1.111
28.246	271.210	-1.111
28.255	271.293	-1.111
28.263	271.376	-1.110
28.271	271.460	-1.110
28.280	271.543	-1.110
28.288	271.626	-1.109
28.296	271.710	-1.109
28.305	271.793	-1.109
28.313	271.876	-1.109
28.321	271.960	-1.108
28.330	272.043	-1.108
28.338	272.126	-1.107
28.346	272.210	-1.107
28.355	272.293	-1.107
28.363	272.377	-1.106
28.371	272.459	-1.106
28.380	272.543	-1.106
28.388	272.626	-1.105
28.396	272.709	-1.105
28.405	272.793	-1.105
28.413	272.876	-1.104
28.421	272.960	-1.104
28.430	273.043	-1.103
28.438	273.127	-1.103
28.446	273.209	-1.103
28.455	273.293	-1.102
28.463	273.376	-1.102
28.471	273.459	-1.102
28.480	273.543	-1.101
28.488	273.626	-1.101
28.496	273.709	-1.100
28.505	273.792	-1.100
28.513	273.876	-1.100
28.521	273.959	-1.099
28.530	274.042	-1.099
28.538	274.125	-1.098
28.546	274.209	-1.098
28.555	274.292	-1.098
28.563	274.376	-1.097
28.571	274.459	-1.097
28.580	274.542	-1.097
28.588	274.625	-1.096
28.596	274.709	-1.096
28.605	274.792	-1.096
28.613	274.875	-1.095
28.621	274.958	-1.095
28.630	275.042	-1.094
28.638	275.125	-1.094
28.646	275.208	-1.094
28.655	275.291	-1.093
28.663	275.375	-1.093
28.671	275.458	-1.093
28.680	275.542	-1.092
28.688	275.625	-1.092
28.696	275.708	-1.091
28.705	275.792	-1.091
28.713	275.875	-1.090
28.721	275.958	-1.090
28.730	276.042	-1.090
28.738	276.125	-1.089
28.746	276.209	-1.089
28.755	276.292	-1.088
28.763	276.375	-1.088
28.771	276.459	-1.087
28.780	276.542	-1.087
28.788	276.625	-1.086
28.796	276.708	-1.086
28.805	276.792	-1.085
28.813	276.875	-1.085
28.821	276.958	-1.084
28.830	277.042	-1.083
28.838	277.125	-1.083
28.846	277.209	-1.082
28.855	277.292	-1.081
28.863	277.376	-1.081
28.871	277.459	-1.080
28.880	277.542	-1.080
28.888	277.625	-1.079
28.896	277.709	-1.078
28.905	277.793	-1.078
28.913	277.875	-1.077
28.921	277.959	-1.076
28.930	278.042	-1.075
28.938	278.126	-1.075
28.946	278.209	-1.074
28.955	278.292	-1.073
28.963	278.376	-1.072
28.971	278.459	-1.071
28.980	278.543	-1.071
28.988	278.626	-1.070
28.996	278.709	-1.069
29.005	278.792	-1.068
29.013	278.876	-1.067
29.021	278.960	-1.066
29.030	279.043	-1.065
29.038	279.126	-1.064
29.046	279.209	-1.063
29.055	279.293	-1.062
29.063	279.376	-1.061
29.071	279.459	-1.060
29.080	279.544	-1.059
29.088	279.627	-1.058
29.096	279.710	-1.056
29.105	279.793	-1.055
29.113	279.877	-1.054
29.121	279.959	-1.053
29.130	280.043	-1.052
29.138	280.127	-1.050
29.146	280.210	-1.049
29.155	280.293	-1.048
29.163	280.377	-1.046
29.171	280.460	-1.045
29.180	280.543	-1.043
29.188	280.627	-1.041
29.196	280.710	-1.040
29.205	280.794	-1.038
29.213	280.877	-1.036
29.221	280.961	-1.034
29.230	281.044	-1.032
29.238	281.128	-1.030
29.246	281.211	-1.028
29.255	281.294	-1.026
29.263	281.378	-1.023
29.271	281.462	-1.021
29.280	281.545	-1.018
29.288	281.628	-1.015
29.296	281.712	-1.012
29.305	281.795	-1.009
29.313	281.878	-1.006
29.321	281.962	-1.003
29.330	282.045	-0.999
29.338	282.129	-0.995
29.346	282.212	-0.990
29.355	282.296	-0.986
29.363	282.380	-0.982
29.371	282.463	-0.978
29.380	282.547	-0.974
29.388	282.630	-0.970
29.396	282.714	-0.966
29.405	282.797	-0.962
29.413	282.881	-0.957
29.421	282.964	-0.952
29.430	283.048	-0.947
29.438	283.131	-0.942
29.446	283.214	-0.936
29.455	283.298	-0.932
29.463	283.382	-0.927
29.471	283.466	-0.922
29.480	283.549	-0.915
29.488	283.632	-0.910
29.496	283.716	-0.904
29.505	283.799	-0.899
29.513	283.883	-0.893
29.521	283.967	-0.887
29.530	284.050	-0.880
29.538	284.133	-0.875
29.546	284.217	-0.869
29.555	284.301	-0.863
29.563	284.385	-0.856
29.571	284.468	-0.849
29.580	284.551	-0.843
29.588	284.635	-0.838
29.596	284.718	-0.832
29.605	284.802	-0.827
29.613	284.885	-0.820
29.621	284.969	-0.812
29.630	285.052	-0.805
29.638	285.136	-0.798
29.646	285.219	-0.791
29.655	285.303	-0.784
29.663	285.386	-0.778
29.671	285.470	-0.771
29.680	285.553	-0.764
29.688	285.638	-0.756
29.696	285.721	-0.748
29.705	285.805	-0.740
29.713	285.888	-0.731
29.721	285.972	-0.723
29.730	286.056	-0.715
29.738	286.139	-0.706
29.746	286.223	-0.699
29.755	286.306	-0.689
29.763	286.390	-0.680
29.771	286.474	-0.672
29.780	286.558	-0.664
29.788	286.642	-0.656
29.796	286.725	-0.646
29.805	286.809	-0.636
29.813	286.892	-0.627
29.821	286.976	-0.619
29.830	287.060	-0.609
29.838	287.143	-0.600
29.846	287.227	-0.591
29.855	287.311	-0.581
29.863	287.394	-0.571
29.871	287.478	-0.561
29.880	287.562	-0.552
29.888	287.646	-0.542
29.896	287.729	-0.531
29.905	287.813	-0.522
29.913	287.897	-0.512
29.921	287.980	-0.502
29.930	288.064	-0.492
29.938	288.148	-0.482
29.946	288.231	-0.473
29.955	288.316	-0.461
29.963	288.400	-0.450
29.971	288.483	-0.439
29.980	288.566	-0.429
29.988	288.651	-0.420
29.996	288.735	-0.409
30.005	288.818	-0.398
30.013	288.901	-0.387
30.021	288.985	-0.376
30.030	289.070	-0.365
30.038	289.153	-0.354
30.046	289.237	-0.344
30.055	289.320	-0.333
30.063	289.405	-0.322
30.071	289.488	-0.313
30.080	289.572	-0.303
30.088	289.656	-0.293
30.096	289.739	-0.281
30.105	289.823	-0.271
30.113	289.907	-0.262
30.121	289.991	-0.251
30.130	290.075	-0.242
30.138	290.159	-0.233
30.146	290.242	-0.223
30.155	290.326	-0.216
30.163	290.410	-0.206
30.171	290.493	-0.196
30.180	290.577	-0.189
30.188	290.661	-0.182
30.196	290.745	-0.174
30.205	290.829	-0.167
30.213	290.912	-0.160
30.221	290.995	-0.153
30.230	291.079	-0.147
30.238	291.162	-0.142
30.246	291.246	-0.136
30.255	291.330	-0.132
30.263	291.413	-0.128
30.271	291.497	-0.123
30.280	291.580	-0.121
30.288	291.663	-0.119
30.296	291.747	-0.116
30.305	291.831	-0.114
30.313	291.914	-0.113
30.321	291.997	-0.112
30.330	292.081	-0.111
30.338	292.163	-0.110
30.346	292.247	-0.109
30.355	292.330	-0.109
30.363	292.414	-0.108
30.371	292.497	-0.108
30.380	292.580	-0.108
30.388	292.663	-0.108
30.396	292.746	-0.108
30.405	292.829	-0.109
30.413	292.912	-0.109
30.421	292.995	-0.111
30.430	293.079	-0.112
30.438	293.161	-0.115
30.446	293.244	-0.119
30.455	293.328	-0.125
30.463	293.411	-0.130
30.471	293.494	-0.136
30.480	293.577	-0.143
30.488	293.659	-0.150
30.496	293.742	-0.157
30.505	293.825	-0.165
30.513	293.908	-0.173
30.521	293.991	-0.180
30.530	294.074	-0.188
30.538	294.157	-0.195
30.546	294.240	-0.202
30.555	294.323	-0.209
30.563	294.407	-0.216
30.571	294.490	-0.224
30.580	294.572	-0.232
30.588	294.656	-0.239
30.596	294.739	-0.245
30.605	294.822	-0.251
30.613	294.905	-0.258
30.621	294.988	-0.265
30.630	295.070	-0.271
30.638	295.153	-0.278
30.646	295.236	-0.283
30.655	295.320	-0.288
30.663	295.402	-0.294
30.671	295.486	-0.299
30.680	295.569	-0.304
30.688	295.652	-0.309
30.696	295.735	-0.315
30.705	295.818	-0.321
30.713	295.902	-0.326
30.721	295.985	-0.330
30.730	296.067	-0.335
30.738	296.150	-0.339
30.746	296.233	-0.344
30.755	296.317	-0.349
30.763	296.400	-0.353
30.771	296.482	-0.357
30.780	296.565	-0.361
30.788	296.649	-0.365
30.796	296.732	-0.369
30.805	296.815	-0.373
30.813	296.898	-0.377
30.821	296.981	-0.381
30.830	297.064	-0.384
30.838	297.147	-0.388
30.846	297.230	-0.392
30.855	297.313	-0.395
30.863	297.397	-0.398
30.871	297.480	-0.401
30.880	297.563	-0.405
30.888	297.646	-0.408
30.896	297.729	-0.410
30.905	297.813	-0.413
30.913	297.895	-0.416
30.921	297.979	-0.419
30.930	298.061	-0.422
30.938	298.145	-0.424
30.946	298.229	-0.427
30.955	298.312	-0.429
30.963	298.395	-0.432
30.971	298.478	-0.434
30.980	298.561	-0.436
30.988	298.644	-0.438
30.996	298.728	-0.441
31.005	298.811	-0.443
31.013	298.894	-0.444
31.021	298.977	-0.446
31.030	299.061	-0.448
31.038	299.144	-0.450
31.046	299.227	-0.453
31.055	299.310	-0.454
31.063	299.393	-0.456
31.071	299.477	-0.458
31.080	299.560	-0.459
31.088	299.643	-0.461
31.096	299.726	-0.462
31.105	299.809	-0.463
31.113	299.893	-0.464
31.121	299.976	-0.466
31.130	300.060	-0.467
31.138	300.142	-0.469
31.146	300.226	-0.470
31.155	300.309	-0.472
31.163	300.392	-0.473
31.171	300.475	-0.474
31.180	300.559	-0.476
31.188	300.642	-0.477
31.196	300.726	-0.478
31.205	300.809	-0.480
31.213	300.892	-0.481
31.221	300.976	-0.482
31.230	301.059	-0.484
31.238	301.142	-0.485
31.246	301.225	-0.486
31.255	301.309	-0.488
31.263	301.391	-0.489
31.271	301.475	-0.490
31.280	301.558	-0.491
31.288	301.641	-0.493
31.296	301.725	-0.494
31.305	301.808	-0.495
31.313	301.891	-0.496
31.321	301.974	-0.497
31.330	302.057	-0.499
31.338	302.141	-0.500
31.346	302.224	-0.501
31.355	302.307	-0.502
31.363	302.391	-0.503
31.371	302.474	-0.504
31.380	302.557	-0.505
31.388	302.640	-0.506
31.396	302.724	-0.507
31.405	302.807	-0.508
31.413	302.891	-0.509
31.421	302.974	-0.510
31.430	303.057	-0.511
31.438	303.140	-0.511
31.446	303.224	-0.512
31.455	303.307	-0.513
31.463	303.390	-0.514
31.471	303.473	-0.515
31.480	303.557	-0.515
31.488	303.640	-0.516
31.496	303.723	-0.516
31.505	303.806	-0.517
31.513	303.890	-0.518
31.521	303.973	-0.518
31.530	304.056	-0.519
31.538	304.140	-0.519
31.546	304.223	-0.520
31.555	304.305	-0.520
31.563	304.389	-0.520
31.571	304.473	-0.521
31.580	304.556	-0.521
31.588	304.639	-0.521
31.596	304.722	-0.522
31.605	304.805	-0.522
31.613	304.889	-0.522
31.621	304.972	-0.522
31.630	305.056	-0.523
31.638	305.139	-0.523
31.646	305.223	-0.523
31.655	305.306	-0.523
31.663	305.389	-0.523
31.671	305.473	-0.523
31.680	305.556	-0.523
31.688	305.639	-0.523
31.696	305.722	-0.523
31.705	305.806	-0.523
31.713	305.889	-0.523
31.721	305.972	-0.522
31.730	306.055	-0.522
31.738	306.139	-0.522
31.746	306.222	-0.522
31.755	306.305	-0.521
31.763	306.389	-0.521
31.771	306.472	-0.521
31.780	306.555	-0.520
31.788	306.639	-0.520
31.796	306.722	-0.520
31.805	306.805	-0.519
31.813	306.889	-0.519
31.821	306.972	-0.518
31.830	307.056	-0.518
31.838	307.139	-0.517
31.846	307.223	-0.516
31.855	307.306	-0.516
31.863	307.389	-0.515
31.871	307.472	-0.514
31.880	307.556	-0.513
31.888	307.639	-0.512
31.896	307.722	-0.511
31.905	307.806	-0.510
31.913	307.890	-0.509
31.921	307.973	-0.508
31.930	308.056	-0.507
31.938	308.139	-0.506
31.946	308.222	-0.505
31.955	308.306	-0.504
31.963	308.390	-0.503
31.971	308.473	-0.502
31.980	308.557	-0.500
31.988	308.640	-0.499
31.996	308.723	-0.498
32.005	308.806	-0.497
32.013	308.890	-0.496
32.021	308.973	-0.494
32.030	309.057	-0.493
32.038	309.140	-0.491
32.046	309.224	-0.489
32.055	309.307	-0.488
32.063	309.390	-0.486
32.071	309.473	-0.485
32.080	309.557	-0.483
32.088	309.641	-0.482
32.096	309.724	-0.480
32.105	309.807	-0.478
32.113	309.890	-0.476
32.121	309.975	-0.474
32.130	310.058	-0.472
32.138	310.141	-0.470
32.146	310.224	-0.468
32.155	310.308	-0.466
32.163	310.391	-0.464
32.171	310.474	-0.462
32.180	310.558	-0.459
32.188	310.641	-0.456
32.196	310.725	-0.453
32.205	310.808	-0.451
32.213	310.892	-0.449
32.221	310.975	-0.446
32.230	311.059	-0.443
32.238	311.141	-0.440
32.246	311.224	-0.437
32.255	311.308	-0.434
32.263	311.391	-0.432
32.271	311.475	-0.429
32.280	311.558	-0.426
32.288	311.642	-0.423
32.296	311.725	-0.420
32.305	311.809	-0.416
32.313	311.893	-0.412
32.321	311.976	-0.410
32.330	312.059	-0.407
32.338	312.143	-0.404
32.346	312.226	-0.400
32.355	312.310	-0.398
32.363	312.394	-0.395
32.371	312.476	-0.392
32.380	312.560	-0.388
32.388	312.644	-0.384
32.396	312.727	-0.380
32.405	312.810	-0.376
32.413	312.893	-0.372
32.421	312.977	-0.368
32.430	313.061	-0.364
32.438	313.144	-0.360
32.446	313.228	-0.354
32.455	313.311	-0.347
32.463	313.394	-0.339
32.471	313.478	-0.333
32.480	313.562	-0.330
32.488	313.645	-0.326
32.496	313.729	-0.321
32.505	313.812	-0.316
32.513	313.895	-0.311
32.521	313.979	-0.307
32.530	314.063	-0.302
32.538	314.146	-0.296
32.546	314.230	-0.292
32.555	314.313	-0.287
32.563	314.397	-0.283
32.571	314.480	-0.279
32.580	314.564	-0.274
32.588	314.647	-0.270
32.596	314.730	-0.266
32.605	314.814	-0.262
32.613	314.897	-0.257
32.621	314.981	-0.252
32.630	315.065	-0.248
32.638	315.148	-0.243
32.646	315.232	-0.238
32.655	315.315	-0.234
32.663	315.398	-0.229
32.671	315.482	-0.224
32.680	315.565	-0.217
32.688	315.649	-0.210
32.696	315.732	-0.205
32.705	315.816	-0.200
32.713	315.899	-0.195
32.721	315.983	-0.190
32.730	316.067	-0.185
32.738	316.150	-0.179
32.746	316.233	-0.174
32.755	316.317	-0.168
32.763	316.400	-0.163
32.771	316.484	-0.158
32.780	316.568	-0.153
32.788	316.651	-0.148
32.796	316.735	-0.144
32.805	316.818	-0.138
32.813	316.902	-0.133
32.821	316.985	-0.128
32.830	317.068	-0.123
32.838	317.152	-0.118
32.846	317.236	-0.112
32.855	317.319	-0.106
32.863	317.402	-0.101
32.871	317.487	-0.096
32.880	317.570	-0.091
32.888	317.653	-0.085
32.896	317.737	-0.079
32.905	317.821	-0.074
32.913	317.904	-0.068
32.921	317.988	-0.062
32.930	318.071	-0.057
32.938	318.154	-0.052
32.946	318.238	-0.047
32.955	318.321	-0.040
32.963	318.404	-0.034
32.971	318.488	-0.027
32.980	318.572	-0.022
32.988	318.655	-0.015
32.996	318.739	-0.009
33.005	318.823	-0.003
33.013	318.906	0.002
33.021	318.990	0.008
33.030	319.073	0.013
33.038	319.157	0.019
33.046	319.241	0.025
33.055	319.324	0.031
33.063	319.407	0.036
33.071	319.491	0.042
33.080	319.575	0.049
33.088	319.658	0.056
33.096	319.742	0.062
33.105	319.825	0.068
33.113	319.910	0.074
33.121	319.992	0.079
33.130	320.076	0.086
33.138	320.159	0.092
33.146	320.243	0.098
33.155	320.327	0.104
33.163	320.410	0.110
33.171	320.494	0.118
33.180	320.577	0.124
33.188	320.661	0.129
33.196	320.745	0.136
33.205	320.828	0.141
33.213	320.912	0.147
33.221	320.995	0.153
33.230	321.079	0.160
33.238	321.162	0.168
33.246	321.246	0.174
33.255	321.330	0.181
33.263	321.413	0.187
33.271	321.497	0.195
33.280	321.581	0.202
33.288	321.664	0.208
33.296	321.747	0.214
33.305	321.831	0.221
33.313	321.915	0.228
33.321	321.998	0.236
33.330	322.082	0.243
33.338	322.165	0.249
33.346	322.249	0.256
33.355	322.332	0.263
33.363	322.416	0.269
33.371	322.499	0.276
33.380	322.583	0.282
33.388	322.667	0.289
33.396	322.750	0.297
33.405	322.834	0.303
33.413	322.917	0.309
33.421	323.001	0.315
33.430	323.084	0.323
33.438	323.168	0.330
33.446	323.252	0.337
33.455	323.335	0.344
33.463	323.419	0.351
33.471	323.502	0.357
33.480	323.586	0.364
33.488	323.669	0.372
33.496	323.753	0.379
33.505	323.837	0.385
33.513	323.920	0.392
33.521	324.004	0.399
33.530	324.087	0.407
33.538	324.171	0.414
33.546	324.255	0.420
33.555	324.338	0.428
33.563	324.422	0.435
33.571	324.506	0.443
33.580	324.589	0.449
33.588	324.673	0.457
33.596	324.757	0.464
33.605	324.840	0.471
33.613	324.923	0.479
33.621	325.007	0.486
33.630	325.091	0.494
33.638	325.174	0.503
33.646	325.258	0.512
33.655	325.342	0.520
33.663	325.426	0.528
33.671	325.509	0.537
33.680	325.593	0.546
33.688	325.676	0.554
33.696	325.760	0.561
33.705	325.843	0.569
33.713	325.927	0.577
33.721	326.010	0.584
33.730	326.094	0.592
33.738	326.178	0.600
33.746	326.262	0.609
33.755	326.345	0.618
33.763	326.429	0.627
33.771	326.512	0.635
33.780	326.596	0.643
33.788	326.680	0.651
33.796	326.763	0.661
33.805	326.847	0.670
33.813	326.930	0.678
33.821	327.015	0.687
33.830	327.098	0.695
33.838	327.181	0.703
33.846	327.265	0.711
33.855	327.349	0.719
33.863	327.432	0.728
33.871	327.516	0.737
33.880	327.600	0.745
33.888	327.684	0.754
33.896	327.767	0.762
33.905	327.851	0.771
33.913	327.935	0.781
33.921	328.018	0.791
33.930	328.102	0.800
33.938	328.186	0.809
33.946	328.270	0.819
33.955	328.353	0.827
33.963	328.437	0.837
33.971	328.521	0.846
33.980	328.604	0.855
33.988	328.688	0.864
33.996	328.772	0.874
34.005	328.855	0.884
34.013	328.939	0.895
34.021	329.023	0.905
34.030	329.107	0.914
34.038	329.190	0.923
34.046	329.274	0.932
34.055	329.358	0.942
34.063	329.441	0.951
34.071	329.525	0.961
34.080	329.608	0.971
34.088	329.692	0.980
34.096	329.776	0.989
34.105	329.859	0.998
34.113	329.943	1.007
34.121	330.027	1.017
34.130	330.111	1.027
34.138	330.194	1.035
34.146	330.278	1.044
34.155	330.361	1.053
34.163	330.446	1.062
34.171	330.529	1.071
34.180	330.612	1.080
34.188	330.696	1.089
34.196	330.780	1.096
34.205	330.864	1.105
34.213	330.947	1.113
34.221	331.031	1.122
34.230	331.114	1.128
34.238	331.198	1.137
34.246	331.282	1.144
34.255	331.366	1.151
34.263	331.449	1.159
34.271	331.533	1.165
34.280	331.617	1.171
34.288	331.700	1.178
34.296	331.784	1.185
34.305	331.867	1.190
34.313	331.951	1.195
34.321	332.034	1.201
34.330	332.118	1.206
34.338	332.202	1.213
34.346	332.285	1.219
34.355	332.369	1.223
34.363	332.452	1.227
34.371	332.536	1.231
34.380	332.619	1.236
34.388	332.702	1.239
34.396	332.786	1.242
34.405	332.869	1.245
34.413	332.953	1.249
34.421	333.036	1.251
34.430	333.120	1.254
34.438	333.203	1.256
34.446	333.286	1.258
34.455	333.370	1.260
34.463	333.453	1.261
34.471	333.537	1.263
34.480	333.620	1.264
34.488	333.703	1.265
34.496	333.787	1.266
34.505	333.870	1.267
34.513	333.954	1.267
34.521	334.037	1.268
34.530	334.120	1.269
34.538	334.203	1.269
34.546	334.287	1.270
34.555	334.370	1.270
34.563	334.454	1.271
34.571	334.537	1.271
34.580	334.620	1.272
34.588	334.703	1.272
34.596	334.786	1.272
34.605	334.869	1.272
34.613	334.953	1.272
34.621	335.035	1.271
34.630	335.119	1.271
34.638	335.202	1.270
34.646	335.285	1.268
34.655	335.368	1.266
34.663	335.451	1.263
34.671	335.534	1.260
34.680	335.617	1.256
34.688	335.701	1.251
34.696	335.783	1.246
34.705	335.867	1.241
34.713	335.950	1.234
34.721	336.033	1.226
34.730	336.115	1.218
34.738	336.199	1.210
34.746	336.282	1.201
34.755	336.365	1.192
34.763	336.448	1.184
34.771	336.531	1.175
34.780	336.614	1.166
34.788	336.697	1.156
34.796	336.779	1.147
34.805	336.863	1.138
34.813	336.946	1.129
34.821	337.028	1.119
34.830	337.111	1.108
34.838	337.195	1.097
34.846	337.277	1.087
34.855	337.360	1.076
34.863	337.443	1.065
34.871	337.526	1.055
34.880	337.608	1.044
34.888	337.692	1.034
34.896	337.775	1.024
34.905	337.857	1.010
34.913	337.939	0.997
34.921	338.023	0.987
34.930	338.106	0.976
34.938	338.188	0.964
34.946	338.271	0.951
34.955	338.354	0.940
34.963	338.437	0.927
34.971	338.520	0.915
34.980	338.603	0.902
34.988	338.686	0.890
34.996	338.769	0.877
35.005	338.851	0.864
35.013	338.934	0.852
35.021	339.017	0.838
35.030	339.100	0.824
35.038	339.182	0.813
35.046	339.265	0.799
35.055	339.348	0.787
35.063	339.431	0.774
35.071	339.513	0.760
35.080	339.596	0.745
35.088	339.679	0.731
35.096	339.761	0.718
35.105	339.844	0.704
35.113	339.927	0.690
35.121	340.010	0.678
35.130	340.092	0.665
35.138	340.175	0.650
35.146	340.258	0.636
35.155	340.341	0.622
35.163	340.423	0.609
35.171	340.506	0.593
35.180	340.589	0.579
35.188	340.671	0.566
35.196	340.754	0.552
35.205	340.836	0.539
35.213	340.919	0.526
35.221	341.002	0.512
35.230	341.084	0.499
35.238	341.167	0.485
35.246	341.250	0.472
35.255	341.333	0.459
35.263	341.415	0.446
35.271	341.498	0.432
35.280	341.581	0.420
35.288	341.664	0.406
35.296	341.747	0.394
35.305	341.829	0.381
35.313	341.913	0.369
35.321	341.995	0.356
35.330	342.077	0.342
35.338	342.160	0.330
35.346	342.243	0.319
35.355	342.326	0.306
35.363	342.409	0.295
35.371	342.491	0.281
35.380	342.574	0.271
35.388	342.657	0.262
35.396	342.739	0.249
35.405	342.822	0.239
35.413	342.904	0.227
35.421	342.987	0.217
35.430	343.069	0.207
35.438	343.152	0.195
35.446	343.235	0.183
35.455	343.318	0.172
35.463	343.401	0.163
35.471	343.485	0.151
35.480	343.568	0.142
35.488	343.650	0.131
35.496	343.734	0.120
35.505	343.816	0.108
35.513	343.899	0.098
35.521	343.982	0.089
35.530	344.065	0.079
35.538	344.146	0.068
35.546	344.229	0.060
35.555	344.311	0.051
35.563	344.394	0.042
35.571	344.476	0.032
35.580	344.559	0.023
35.588	344.642	0.014
35.596	344.725	0.004
35.605	344.809	-0.006
35.613	344.892	-0.017
35.621	344.975	-0.027
35.630	345.058	-0.037
35.638	345.141	-0.046
35.646	345.225	-0.056
35.655	345.308	-0.066
35.663	345.391	-0.076
35.671	345.474	-0.084
35.680	345.556	-0.093
35.688	345.639	-0.102
35.696	345.721	-0.112
35.705	345.804	-0.121
35.713	345.886	-0.129
35.721	345.969	-0.136
35.730	346.052	-0.143
35.738	346.135	-0.152
35.746	346.218	-0.162
35.755	346.301	-0.171
35.763	346.384	-0.180
35.771	346.467	-0.189
35.780	346.550	-0.198
35.788	346.633	-0.207
35.796	346.716	-0.215
35.805	346.799	-0.225
35.813	346.881	-0.233
35.821	346.964	-0.240
35.830	347.047	-0.247
35.838	347.130	-0.255
35.846	347.213	-0.262
35.855	347.296	-0.270
35.863	347.379	-0.278
35.871	347.462	-0.285
35.880	347.545	-0.293
35.888	347.627	-0.301
35.896	347.711	-0.308
35.905	347.794	-0.315
35.913	347.876	-0.324
35.921	347.960	-0.332
35.930	348.043	-0.340
35.938	348.126	-0.347
35.946	348.208	-0.353
35.955	348.291	-0.359
35.963	348.374	-0.367
35.971	348.457	-0.373
35.980	348.540	-0.379
35.988	348.624	-0.386
35.996	348.707	-0.392
36.005	348.789	-0.399
36.013	348.872	-0.406
36.021	348.956	-0.413
36.030	349.038	-0.419
36.038	349.121	-0.426
36.046	349.204	-0.433
36.055	349.287	-0.437
36.063	349.370	-0.440
36.071	349.452	-0.443
36.080	349.536	-0.449
36.088	349.619	-0.453
36.096	349.702	-0.457
36.105	349.785	-0.462
36.113	349.868	-0.467
36.121	349.952	-0.472
36.130	350.034	-0.477
36.138	350.117	-0.481
36.146	350.201	-0.485
36.155	350.284	-0.488
36.163	350.367	-0.491
36.171	350.450	-0.495
36.180	350.533	-0.498
36.188	350.616	-0.501
36.196	350.699	-0.505
36.205	350.782	-0.509
36.213	350.865	-0.512
36.221	350.948	-0.515
36.230	351.031	-0.518
36.238	351.114	-0.522
36.246	351.197	-0.525
36.255	351.281	-0.528
36.263	351.364	-0.531
36.271	351.447	-0.534
36.280	351.530	-0.536
36.288	351.613	-0.539
36.296	351.697	-0.541
36.305	351.780	-0.543
36.313	351.863	-0.544
36.321	351.946	-0.545
36.330	352.029	-0.547
36.338	352.112	-0.548
36.346	352.196	-0.550
36.355	352.279	-0.552
36.363	352.362	-0.554
36.371	352.445	-0.556
36.380	352.529	-0.557
36.388	352.612	-0.558
36.396	352.696	-0.560
36.405	352.778	-0.561
36.413	352.862	-0.563
36.421	352.945	-0.564
36.430	353.028	-0.565
36.438	353.112	-0.567
36.446	353.195	-0.568
36.455	353.278	-0.569
36.463	353.361	-0.571
36.471	353.444	-0.572
36.480	353.527	-0.573
36.488	353.611	-0.575
36.496	353.694	-0.576
36.505	353.777	-0.577
36.513	353.861	-0.578
36.521	353.944	-0.580
36.530	354.027	-0.581
36.538	354.110	-0.583
36.546	354.194	-0.584
36.555	354.277	-0.585
36.563	354.360	-0.587
36.571	354.443	-0.588
36.580	354.526	-0.589
36.588	354.610	-0.590
36.596	354.693	-0.592
36.605	354.777	-0.593
36.613	354.859	-0.594
36.621	354.943	-0.596
36.630	355.026	-0.597
36.638	355.109	-0.598
36.646	355.193	-0.599
36.655	355.276	-0.600
36.663	355.359	-0.602
36.671	355.442	-0.603
36.680	355.526	-0.604
36.688	355.609	-0.605
36.696	355.692	-0.606
36.705	355.776	-0.607
36.713	355.858	-0.608
36.721	355.942	-0.609
36.730	356.025	-0.610
36.738	356.108	-0.611
36.746	356.192	-0.612
36.755	356.275	-0.613
36.763	356.358	-0.614
36.771	356.441	-0.615
36.780	356.525	-0.615
36.788	356.608	-0.616
36.796	356.691	-0.617
36.805	356.775	-0.618
36.813	356.858	-0.619
36.821	356.942	-0.619
36.830	357.025	-0.620
36.838	357.108	-0.621
36.846	357.191	-0.622
36.855	357.274	-0.622
36.863	357.357	-0.623
36.871	357.441	-0.624
36.880	357.525	-0.624
36.888	357.608	-0.625
36.896	357.691	-0.625
36.905	357.774	-0.626
36.913	357.857	-0.626
36.921	357.940	-0.627
36.930	358.024	-0.627
36.938	358.107	-0.628
36.946	358.190	-0.628
36.955	358.273	-0.629
36.963	358.357	-0.629
36.971	358.440	-0.630
36.980	358.523	-0.630
36.988	358.606	-0.630
36.996	358.689	-0.631
37.005	358.773	-0.631
37.013	358.856	-0.632
37.021	358.939	-0.632
37.030	359.023	-0.632
37.038	359.106	-0.633
37.046	359.189	-0.633
37.055	359.272	-0.634
37.063	359.356	-0.634
37.071	359.438	-0.634
37.080	359.522	-0.635
37.088	359.606	-0.635
37.096	359.689	-0.635
37.105	359.772	-0.635
37.113	359.855	-0.636
37.121	359.938	-0.636
37.130	360.022	-0.636
37.138	360.105	-0.637
37.146	360.188	-0.637
37.155	360.272	-0.637
37.163	360.355	-0.637
37.171	360.438	-0.638
37.180	360.521	-0.638
37.188	360.605	-0.638
37.196	360.688	-0.638
37.205	360.771	-0.639
37.213	360.854	-0.639
37.221	360.938	-0.639
37.230	361.021	-0.639
37.238	361.104	-0.640
37.246	361.188	-0.640
37.255	361.271	-0.640
37.263	361.354	-0.640
37.271	361.437	-0.640
37.280	361.521	-0.640
37.288	361.604	-0.640
37.296	361.688	-0.640
37.305	361.771	-0.640
37.313	361.854	-0.640
37.321	361.937	-0.640
37.330	362.020	-0.640
37.338	362.104	-0.640
37.346	362.187	-0.640
37.355	362.270	-0.640
37.363	362.354	-0.640
37.371	362.437	-0.640
37.380	362.520	-0.640
37.388	362.603	-0.640
37.396	362.686	-0.640
37.405	362.770	-0.640
37.413	362.853	-0.640
37.421	362.936	-0.640
37.430	363.019	-0.640
37.438	363.103	-0.640
37.446	363.186	-0.640
37.455	363.269	-0.640
37.463	363.352	-0.641
37.471	363.436	-0.641
37.480	363.519	-0.641
37.488	363.602	-0.641
37.496	363.685	-0.641
37.505	363.769	-0.641
37.513	363.852	-0.641
37.521	363.935	-0.641
37.530	364.018	-0.641
37.538	364.101	-0.641
37.546	364.184	-0.641
37.555	364.267	-0.641
37.563	364.351	-0.641
37.571	364.434	-0.641
37.580	364.517	-0.641
37.588	364.601	-0.641
37.596	364.684	-0.641
37.605	364.767	-0.641
37.613	364.850	-0.641
37.621	364.934	-0.641
37.630	365.017	-0.642
37.638	365.100	-0.642
37.646	365.183	-0.642
37.655	365.267	-0.642
37.663	365.350	-0.642
37.671	365.433	-0.642
37.680	365.516	-0.642
37.688	365.599	-0.642
37.696	365.683	-0.642
37.705	365.766	-0.642
37.713	365.849	-0.642
37.721	365.933	-0.642
37.730	366.016	-0.642
37.738	366.099	-0.642
37.746	366.182	-0.642
37.755	366.266	-0.642
37.763	366.349	-0.642
37.771	366.432	-0.643
37.780	366.515	-0.643
37.788	366.599	-0.643
37.796	366.683	-0.643
37.805	366.766	-0.643
37.813	366.848	-0.643
37.821	366.931	-0.643
37.830	367.015	-0.643
37.838	367.098	-0.643
37.846	367.181	-0.643
37.855	367.265	-0.644
37.863	367.348	-0.644
37.871	367.432	-0.644
37.880	367.515	-0.644
37.888	367.598	-0.644
37.896	367.681	-0.644
37.905	367.765	-0.644
37.913	367.848	-0.644
37.921	367.932	-0.644
37.930	368.015	-0.644
37.938	368.098	-0.644
37.946	368.182	-0.644
37.955	368.265	-0.644
37.963	368.348	-0.644
37.971	368.431	-0.644
37.980	368.515	-0.644
37.988	368.599	-0.644
37.996	368.682	-0.644
38.005	368.765	-0.644
38.013	368.848	-0.644
38.021	368.932	-0.644
38.030	369.015	-0.645
38.038	369.098	-0.645
38.046	369.181	-0.645
38.055	369.265	-0.645
38.063	369.348	-0.645
38.071	369.432	-0.645
38.080	369.515	-0.645
38.088	369.599	-0.645
38.096	369.681	-0.645
38.105	369.765	-0.645
38.113	369.848	-0.645
38.121	369.931	-0.645
38.130	370.014	-0.645
38.138	370.098	-0.646
38.146	370.181	-0.646
38.155	370.265	-0.646
38.163	370.348	-0.646
38.171	370.431	-0.646
38.180	370.515	-0.646
38.188	370.598	-0.646
38.196	370.681	-0.647
38.205	370.764	-0.647
38.213	370.848	-0.647
38.221	370.932	-0.647
38.230	371.015	-0.647
38.238	371.098	-0.647
38.246	371.181	-0.647
38.255	371.265	-0.648
38.263	371.348	-0.648
38.271	371.431	-0.648
38.280	371.515	-0.648
38.288	371.598	-0.648
38.296	371.681	-0.648
38.305	371.765	-0.649
38.313	371.848	-0.649
38.321	371.932	-0.649
38.330	372.015	-0.649
38.338	372.098	-0.649
38.346	372.181	-0.650
38.355	372.265	-0.650
38.363	372.348	-0.650
38.371	372.431	-0.650
38.380	372.515	-0.650
38.388	372.598	-0.650
38.396	372.682	-0.650
38.405	372.764	-0.651
38.413	372.848	-0.651
38.421	372.931	-0.651
38.430	373.015	-0.651
38.438	373.098	-0.651
38.446	373.181	-0.651
38.455	373.264	-0.651
38.463	373.347	-0.651
38.471	373.431	-0.651
38.480	373.514	-0.652
38.488	373.597	-0.652
38.496	373.680	-0.652
38.505	373.764	-0.652
38.513	373.848	-0.652
38.521	373.931	-0.652
38.530	374.014	-0.652
38.538	374.097	-0.652
38.546	374.180	-0.652
38.555	374.264	-0.652
38.563	374.347	-0.652
38.571	374.430	-0.652
38.580	374.513	-0.652
38.588	374.597	-0.652
38.596	374.680	-0.652
38.605	374.764	-0.652
38.613	374.847	-0.652
38.621	374.930	-0.652
38.630	375.014	-0.652
38.638	375.097	-0.652
38.646	375.180	-0.652
38.655	375.263	-0.652
38.663	375.346	-0.652
38.671	375.430	-0.652
38.680	375.513	-0.652
38.688	375.597	-0.652
38.696	375.679	-0.652
38.705	375.762	-0.651
38.713	375.846	-0.651
38.721	375.929	-0.651
38.730	376.013	-0.651
38.738	376.096	-0.651
38.746	376.179	-0.651
38.755	376.262	-0.651
38.763	376.346	-0.651
38.771	376.429	-0.650
38.780	376.512	-0.650
38.788	376.596	-0.650
38.796	376.679	-0.650
38.805	376.762	-0.650
38.813	376.845	-0.650
38.821	376.928	-0.650
38.830	377.012	-0.650
38.838	377.095	-0.650
38.846	377.178	-0.650
38.855	377.261	-0.649
38.863	377.345	-0.649
38.871	377.428	-0.649
38.880	377.512	-0.649
38.888	377.594	-0.649
38.896	377.678	-0.649
38.905	377.761	-0.649
38.913	377.844	-0.649
38.921	377.928	-0.649
38.930	378.011	-0.648
38.938	378.094	-0.648
38.946	378.177	-0.648
38.955	378.260	-0.648
38.963	378.344	-0.648
38.971	378.427	-0.648
38.980	378.510	-0.647
38.988	378.594	-0.647
38.996	378.677	-0.647
39.005	378.761	-0.647
39.013	378.844	-0.646
39.021	378.927	-0.646
39.030	379.011	-0.646
39.038	379.093	-0.645
39.046	379.177	-0.645
39.055	379.260	-0.645
39.063	379.344	-0.644
39.071	379.427	-0.644
39.080	379.510	-0.643
39.088	379.594	-0.643
39.096	379.677	-0.643
39.105	379.760	-0.642
39.113	379.843	-0.642
39.121	379.927	-0.641
39.130	380.010	-0.641
39.138	380.094	-0.641
39.146	380.176	-0.640
39.155	380.260	-0.640
39.163	380.343	-0.639
39.171	380.427	-0.639
39.180	380.510	-0.638
39.188	380.593	-0.638
39.196	380.677	-0.638
39.205	380.760	-0.637
39.213	380.844	-0.637
39.221	380.926	-0.637
39.230	381.010	-0.636
39.238	381.093	-0.636
39.246	381.176	-0.635
39.255	381.260	-0.635
39.263	381.343	-0.635
39.271	381.426	-0.634
39.280	381.509	-0.634
39.288	381.593	-0.634
39.296	381.676	-0.633
39.305	381.760	-0.633
39.313	381.843	-0.632
39.321	381.926	-0.632
39.330	382.009	-0.632
39.338	382.092	-0.631
39.346	382.176	-0.631
39.355	382.259	-0.631
39.363	382.342	-0.630
39.371	382.426	-0.630
39.380	382.509	-0.630
39.388	382.592	-0.629
39.396	382.676	-0.629
39.405	382.759	-0.629
39.413	382.842	-0.628
39.421	382.926	-0.628
39.430	383.009	-0.627
39.438	383.092	-0.627
39.446	383.175	-0.627
39.455	383.258	-0.626
39.463	383.342	-0.626
39.471	383.425	-0.626
39.480	383.509	-0.625
39.488	383.592	-0.625
39.496	383.675	-0.625
39.505	383.759	-0.624
39.513	383.842	-0.624
39.521	383.925	-0.624
39.530	384.009	-0.623
39.538	384.092	-0.623
39.546	384.175	-0.623
39.555	384.258	-0.622
39.563	384.342	-0.622
39.571	384.425	-0.622
39.580	384.508	-0.621
39.588	384.592	-0.621
39.596	384.675	-0.621
39.605	384.759	-0.620
39.613	384.842	-0.620
39.621	384.925	-0.620
39.630	385.009	-0.619
39.638	385.092	-0.619
39.646	385.176	-0.619
39.655	385.258	-0.618
39.663	385.342	-0.618
39.671	385.425	-0.618
39.680	385.508	-0.617
39.688	385.592	-0.617
39.696	385.675	-0.617
39.705	385.758	-0.616
39.713	385.841	-0.616
39.721	385.925	-0.616
39.730	386.008	-0.615
39.738	386.091	-0.615
39.746	386.174	-0.614
39.755	386.257	-0.614
39.763	386.341	-0.614
39.771	386.425	-0.613
39.780	386.508	-0.613
39.788	386.591	-0.612
39.796	386.674	-0.612
39.805	386.758	-0.612
39.813	386.841	-0.611
39.821	386.924	-0.611
39.830	387.007	-0.610
39.838	387.091	-0.610
39.846	387.174	-0.609
39.855	387.257	-0.609
39.863	387.340	-0.608
39.871	387.423	-0.608
39.880	387.507	-0.607
39.888	387.590	-0.607
39.896	387.674	-0.607
39.905	387.757	-0.606
39.913	387.840	-0.606
39.921	387.924	-0.605
39.930	388.007	-0.605
39.938	388.090	-0.604
39.946	388.173	-0.604
39.955	388.257	-0.603
39.963	388.340	-0.603
39.971	388.423	-0.602
39.980	388.506	-0.602
39.988	388.589	-0.601
39.996	388.673	-0.601
40.005	388.756	-0.601
40.013	388.840	-0.600
40.021	388.923	-0.600
40.030	389.006	-0.599
40.038	389.089	-0.599
40.046	389.173	-0.598
40.055	389.256	-0.598
40.063	389.339	-0.598
40.071	389.422	-0.597
40.080	389.506	-0.597
40.088	389.589	-0.596
40.096	389.672	-0.596
40.105	389.755	-0.595
40.113	389.839	-0.595
40.121	389.922	-0.594
40.130	390.005	-0.594
40.138	390.088	-0.593
40.146	390.172	-0.593
40.155	390.256	-0.593
40.163	390.338	-0.592
40.171	390.422	-0.592
40.180	390.505	-0.591
40.188	390.589	-0.591
40.196	390.672	-0.590
40.205	390.755	-0.590
40.213	390.838	-0.589
40.221	390.921	-0.589
40.230	391.005	-0.588
40.238	391.088	-0.588
40.246	391.172	-0.588
40.255	391.255	-0.587
40.263	391.338	-0.586
40.271	391.421	-0.586
40.280	391.504	-0.585
40.288	391.587	-0.585
40.296	391.671	-0.584
40.305	391.754	-0.584
40.313	391.837	-0.583
40.321	391.921	-0.583
40.330	392.004	-0.582
40.338	392.088	-0.582
40.346	392.171	-0.581
40.355	392.254	-0.581
40.363	392.337	-0.580
40.371	392.421	-0.580
40.380	392.504	-0.579
40.388	392.587	-0.579
40.396	392.671	-0.578
40.405	392.754	-0.578
40.413	392.837	-0.578
40.421	392.920	-0.577
40.430	393.003	-0.577
40.438	393.087	-0.576
40.446	393.170	-0.576
40.455	393.253	-0.575
40.463	393.337	-0.575
40.471	393.420	-0.574
40.480	393.503	-0.574
40.488	393.586	-0.574
40.496	393.669	-0.573
40.505	393.752	-0.573
40.513	393.837	-0.572
40.521	393.920	-0.572
40.530	394.003	-0.572
40.538	394.086	-0.571
40.546	394.169	-0.571
40.555	394.253	-0.570
40.563	394.336	-0.570
40.571	394.419	-0.570
40.580	394.503	-0.569
40.588	394.585	-0.569
40.596	394.669	-0.568
40.605	394.752	-0.568
40.613	394.835	-0.568
40.621	394.919	-0.567
40.630	395.002	-0.567
40.638	395.085	-0.567
40.646	395.168	-0.566
40.655	395.252	-0.566
40.663	395.335	-0.566
40.671	395.419	-0.565
40.680	395.502	-0.565
40.688	395.585	-0.565
40.696	395.668	-0.564
40.705	395.752	-0.564
40.713	395.835	-0.563
40.721	395.919	-0.563
40.730	396.001	-0.563
40.738	396.084	-0.562
40.746	396.168	-0.562
40.755	396.251	-0.561
40.763	396.334	-0.561
40.771	396.418	-0.561
40.780	396.501	-0.560
40.788	396.584	-0.560
40.796	396.668	-0.559
40.805	396.751	-0.559
40.813	396.834	-0.559
40.821	396.918	-0.558
40.830	397.001	-0.558
40.838	397.084	-0.558
40.846	397.167	-0.557
40.855	397.251	-0.557
40.863	397.334	-0.556
40.871	397.417	-0.556
40.880	397.500	-0.555
40.888	397.584	-0.555
40.896	397.667	-0.554
40.905	397.751	-0.554
40.913	397.834	-0.554
40.921	397.917	-0.553
40.930	398.000	-0.553
40.938	398.084	-0.552
40.946	398.167	-0.552
40.955	398.250	-0.551
40.963	398.333	-0.551
40.971	398.417	-0.550
40.980	398.500	-0.550
40.988	398.583	-0.549
40.996	398.666	-0.549
41.005	398.750	-0.549
41.013	398.833	-0.548
41.021	398.916	-0.548
41.030	399.000	-0.547
41.038	399.084	-0.547
41.046	399.166	-0.546
41.055	399.250	-0.546
41.063	399.333	-0.545
41.071	399.416	-0.545
41.080	399.500	-0.545
41.088	399.583	-0.544
41.096	399.666	-0.544
41.105	399.750	-0.543
41.113	399.833	-0.543
41.121	399.916	-0.543
41.130	400.000	-0.542
41.138	400.083	-0.542
41.146	400.166	-0.542
41.155	400.250	-0.541
41.163	400.333	-0.541
41.171	400.416	-0.540
41.180	400.499	-0.540
41.188	400.583	-0.540
41.196	400.666	-0.539
41.205	400.750	-0.539
41.213	400.832	-0.539
41.221	400.916	-0.538
41.230	400.999	-0.538
41.238	401.083	-0.538
41.246	401.166	-0.537
41.255	401.250	-0.537
41.263	401.333	-0.537
41.271	401.416	-0.536
41.280	401.499	-0.536
41.288	401.583	-0.536
41.296	401.666	-0.535
41.305	401.749	-0.535
41.313	401.832	-0.535
41.321	401.916	-0.534
41.330	401.999	-0.534
41.338	402.082	-0.534
41.346	402.166	-0.533
41.355	402.249	-0.533
41.363	402.332	-0.533
41.371	402.416	-0.532
41.380	402.499	-0.532
41.388	402.583	-0.532
41.396	402.665	-0.531
41.405	402.748	-0.531
41.413	402.832	-0.531
41.421	402.915	-0.531
41.430	402.998	-0.530
41.438	403.082	-0.530
41.446	403.165	-0.530
41.455	403.249	-0.530
41.463	403.332	-0.529
41.471	403.415	-0.529
41.480	403.498	-0.529
41.488	403.581	-0.529
41.496	403.665	-0.529
41.505	403.748	-0.528
41.513	403.831	-0.528
41.521	403.915	-0.528
41.530	403.998	-0.528
41.538	404.081	-0.528
41.546	404.164	-0.527
41.555	404.248	-0.527
41.563	404.331	-0.527
41.571	404.414	-0.527
41.580	404.498	-0.527
41.588	404.581	-0.527
41.596	404.664	-0.527
41.605	404.748	-0.526
41.613	404.831	-0.526
41.621	404.914	-0.526
41.630	404.997	-0.526
41.638	405.080	-0.526
41.646	405.164	-0.526
41.655	405.247	-0.526
41.663	405.331	-0.526
41.671	405.413	-0.526
41.680	405.497	-0.525
41.688	405.580	-0.525
41.696	405.664	-0.525
41.705	405.747	-0.525
41.713	405.830	-0.525
41.721	405.913	-0.525
41.730	405.997	-0.525
41.738	406.080	-0.525
41.746	406.163	-0.525
41.755	406.246	-0.525
41.763	406.330	-0.525
41.771	406.413	-0.525
41.780	406.497	-0.525
41.788	406.580	-0.524
41.796	406.663	-0.524
41.805	406.746	-0.524
41.813	406.829	-0.524
41.821	406.913	-0.524
41.830	406.996	-0.524
41.838	407.080	-0.524
41.846	407.163	-0.524
41.855	407.245	-0.524
41.863	407.329	-0.524
41.871	407.412	-0.524
41.880	407.496	-0.524
41.888	407.579	-0.523
41.896	407.662	-0.523
41.905	407.745	-0.523
41.913	407.828	-0.523
41.921	407.912	-0.523
41.930	407.995	-0.523
41.938	408.078	-0.523
41.946	408.161	-0.523
41.955	408.245	-0.523
41.963	408.328	-0.523
41.971	408.411	-0.523
41.980	408.495	-0.523
41.988	408.578	-0.523
41.996	408.661	-0.523
42.005	408.744	-0.523
42.013	408.828	-0.523
42.021	408.911	-0.523
42.030	408.995	-0.523
42.038	409.078	-0.522
42.046	409.160	-0.522
42.055	409.244	-0.522
42.063	409.327	-0.522
42.071	409.411	-0.522
42.080	409.493	-0.522
42.088	409.577	-0.522
42.096	409.660	-0.522
42.105	409.743	-0.522
42.113	409.827	-0.522
42.121	409.910	-0.522
42.130	409.993	-0.522
42.138	410.076	-0.522
42.146	410.160	-0.522
42.155	410.243	-0.522
42.163	410.326	-0.522
42.171	410.410	-0.522
42.180	410.493	-0.522
42.188	410.576	-0.522
42.196	410.659	-0.522
42.205	410.742	-0.523
42.213	410.826	-0.523
42.221	410.909	-0.523
42.230	410.992	-0.523
42.238	411.075	-0.522
42.246	411.159	-0.522
42.255	411.242	-0.522
42.263	411.325	-0.521
42.271	411.409	-0.521
42.280	411.492	-0.521
42.288	411.575	-0.521
42.296	411.659	-0.520
42.305	411.742	-0.520
42.313	411.825	-0.520
42.321	411.908	-0.520
42.330	411.991	-0.519
42.338	412.075	-0.519
42.346	412.158	-0.519
42.355	412.242	-0.518
42.363	412.325	-0.518
42.371	412.408	-0.518
42.380	412.491	-0.518
42.388	412.575	-0.518
42.396	412.658	-0.517
42.405	412.741	-0.517
42.413	412.824	-0.517
42.421	412.907	-0.517
42.430	412.991	-0.517
42.438	413.074	-0.516
42.446	413.157	-0.516
42.455	413.241	-0.516
42.463	413.324	-0.516
42.471	413.407	-0.516
42.480	413.491	-0.515
42.488	413.574	-0.515
42.496	413.657	-0.515
42.505	413.740	-0.515
42.513	413.823	-0.515
42.521	413.907	-0.515
42.530	413.990	-0.515
42.538	414.073	-0.514
42.546	414.157	-0.514
42.555	414.240	-0.514
42.563	414.323	-0.514
42.571	414.406	-0.514
42.580	414.489	-0.514
42.588	414.572	-0.514
42.596	414.656	-0.514
42.605	414.739	-0.514
42.613	414.823	-0.514
42.621	414.906	-0.514
42.630	414.989	-0.514
42.638	415.072	-0.513
42.646	415.155	-0.513
42.655	415.238	-0.513
42.663	415.321	-0.513
42.671	415.404	-0.513
42.680	415.488	-0.513
42.688	415.571	-0.513
42.696	415.654	-0.513
42.705	415.738	-0.513
42.713	415.822	-0.513
42.721	415.904	-0.513
42.730	415.987	-0.513
42.738	416.071	-0.513
42.746	416.154	-0.513
42.755	416.237	-0.512
42.763	416.321	-0.512
42.771	416.404	-0.512
42.780	416.487	-0.512
42.788	416.570	-0.512
42.796	416.653	-0.512
42.805	416.736	-0.512
42.813	416.820	-0.512
42.821	416.904	-0.512
42.830	416.987	-0.512
42.838	417.070	-0.512
42.846	417.153	-0.512
42.855	417.236	-0.511
42.863	417.320	-0.511
42.871	417.403	-0.511
42.880	417.486	-0.511
42.888	417.570	-0.511
42.896	417.652	-0.511
42.905	417.736	-0.511
42.913	417.819	-0.511
42.921	417.902	-0.511
42.930	417.985	-0.511
42.938	418.068	-0.511
42.946	418.152	-0.511
42.955	418.235	-0.511
42.963	418.318	-0.511
42.971	418.402	-0.511
42.980	418.485	-0.511
42.988	418.568	-0.511
42.996	418.651	-0.511
43.005	418.735	-0.511
43.013	418.818	-0.511
43.021	418.901	-0.511
43.030	418.984	-0.511
43.038	419.067	-0.511
43.046	419.150	-0.511
43.055	419.234	-0.511
43.063	419.317	-0.512
43.071	419.401	-0.512
43.080	419.484	-0.512
43.088	419.567	-0.512
43.096	419.650	-0.512
43.105	419.733	-0.512
43.113	419.817	-0.512
43.121	419.901	-0.512
43.130	419.984	-0.512
43.138	420.066	-0.512
43.146	420.149	-0.513
43.155	420.233	-0.513
43.163	420.316	-0.513
43.171	420.400	-0.513
43.180	420.483	-0.513
43.188	420.566	-0.513
43.196	420.649	-0.513
43.205	420.733	-0.513
43.213	420.815	-0.513
43.221	420.899	-0.514
43.230	420.983	-0.514
43.238	421.066	-0.514
43.246	421.150	-0.514
43.255	421.233	-0.514
43.263	421.316	-0.514
43.271	421.400	-0.514
43.280	421.483	-0.514
43.288	421.566	-0.514
43.296	421.649	-0.514
43.305	421.732	-0.515
43.313	421.815	-0.515
43.321	421.898	-0.515
43.330	421.982	-0.515
43.338	422.065	-0.515
43.346	422.149	-0.515
43.355	422.232	-0.515
43.363	422.315	-0.515
43.371	422.398	-0.515
43.380	422.482	-0.516
43.388	422.565	-0.516
43.396	422.648	-0.516
43.405	422.732	-0.516
43.413	422.815	-0.516
43.421	422.898	-0.516
43.430	422.981	-0.516
43.438	423.064	-0.516
43.446	423.148	-0.516
43.455	423.231	-0.516
43.463	423.314	-0.516
43.471	423.398	-0.516
43.480	423.481	-0.516
43.488	423.564	-0.516
43.496	423.648	-0.517
43.505	423.730	-0.517
43.513	423.814	-0.517
43.521	423.897	-0.517
43.530	423.980	-0.517
43.538	424.063	-0.517
43.546	424.147	-0.517
43.555	424.230	-0.517
43.563	424.314	-0.517
43.571	424.396	-0.518
43.580	424.480	-0.518
43.588	424.563	-0.518
43.596	424.646	-0.518
43.605	424.729	-0.518
43.613	424.813	-0.518
43.621	424.896	-0.518
43.630	424.979	-0.518
43.638	425.063	-0.518
43.646	425.146	-0.518
43.655	425.229	-0.518
43.663	425.312	-0.518
43.671	425.396	-0.518
43.680	425.479	-0.518
43.688	425.562	-0.518
43.696	425.646	-0.518
43.705	425.728	-0.518
43.713	425.812	-0.518
43.721	425.895	-0.518
43.730	425.979	-0.518
43.738	426.062	-0.518
43.746	426.145	-0.518
43.755	426.228	-0.518
43.763	426.312	-0.518
43.771	426.395	-0.518
43.780	426.478	-0.518
43.788	426.561	-0.518
43.796	426.645	-0.518
43.805	426.728	-0.518
43.813	426.812	-0.518
43.821	426.894	-0.517
43.830	426.978	-0.517
43.838	427.061	-0.517
43.846	427.144	-0.517
43.855	427.228	-0.517
43.863	427.311	-0.517
43.871	427.394	-0.517
43.880	427.477	-0.517
43.888	427.561	-0.517
43.896	427.644	-0.517
43.905	427.727	-0.517
43.913	427.810	-0.517
43.921	427.894	-0.517
43.930	427.977	-0.517
43.938	428.061	-0.517
43.946	428.144	-0.518
43.955	428.227	-0.518
43.963	428.309	-0.518
43.971	428.393	-0.518
43.980	428.476	-0.518
43.988	428.559	-0.518
43.996	428.643	-0.518
44.005	428.726	-0.518
44.013	428.809	-0.518
44.021	428.893	-0.518
44.030	428.976	-0.518
44.038	429.059	-0.518
44.046	429.143	-0.518
44.055	429.225	-0.518
44.063	429.309	-0.518
44.071	429.392	-0.519
44.080	429.475	-0.519
44.088	429.559	-0.519
44.096	429.642	-0.519
44.105	429.725	-0.519
44.113	429.809	-0.519
44.121	429.892	-0.519
44.130	429.975	-0.519
44.138	430.058	-0.520
44.146	430.142	-0.520
44.155	430.225	-0.520
44.163	430.308	-0.520
44.171	430.392	-0.520
44.180	430.474	-0.520
44.188	430.558	-0.521
44.196	430.641	-0.521
44.205	430.724	-0.521
44.213	430.808	-0.521
44.221	430.891	-0.521
44.230	430.974	-0.522
44.238	431.057	-0.522
44.246	431.141	-0.522
44.255	431.224	-0.522
44.263	431.307	-0.522
44.271	431.391	-0.523
44.280	431.474	-0.523
44.288	431.557	-0.523
44.296	431.641	-0.524
44.305	431.724	-0.524
44.313	431.807	-0.524
44.321	431.890	-0.524
44.330	431.973	-0.525
44.338	432.057	-0.525
44.346	432.140	-0.525
44.355	432.223	-0.525
44.363	432.306	-0.526
44.371	432.390	-0.526
44.380	432.473	-0.526
44.388	432.557	-0.527
44.396	432.640	-0.527
44.405	432.723	-0.527
44.413	432.806	-0.528
44.421	432.889	-0.528
44.430	432.972	-0.528
44.438	433.055	-0.529
44.446	433.139	-0.529
44.455	433.222	-0.529
44.463	433.305	-0.530
44.471	433.389	-0.530
44.480	433.472	-0.530
44.488	433.555	-0.531
44.496	433.638	-0.531
44.505	433.722	-0.532
44.513	433.805	-0.532
44.521	433.888	-0.532
44.530	433.971	-0.533
44.538	434.054	-0.533
44.546	434.138	-0.533
44.555	434.221	-0.534
44.563	434.305	-0.534
44.571	434.388	-0.534
44.580	434.470	-0.535
44.588	434.554	-0.535
44.596	434.637	-0.535
44.605	434.720	-0.536
44.613	434.803	-0.536
44.621	434.887	-0.536
44.630	434.970	-0.537
44.638	435.054	-0.537
44.646	435.137	-0.537
44.655	435.220	-0.537
44.663	435.303	-0.538
44.671	435.387	-0.538
44.680	435.470	-0.538
44.688	435.553	-0.538
44.696	435.636	-0.539
44.705	435.720	-0.539
44.713	435.803	-0.539
44.721	435.886	-0.539
44.730	435.969	-0.539
44.738	436.053	-0.539
44.746	436.136	-0.539
44.755	436.219	-0.540
44.763	436.302	-0.540
44.771	436.385	-0.540
44.780	436.469	-0.540
44.788	436.552	-0.540
44.796	436.635	-0.541
44.805	436.718	-0.541
44.813	436.801	-0.541
44.821	436.884	-0.541
44.830	436.967	-0.541
44.838	437.050	-0.541
44.846	437.134	-0.541
44.855	437.217	-0.541
44.863	437.301	-0.542
44.871	437.384	-0.542
44.880	437.467	-0.542
44.888	437.551	-0.542
44.896	437.634	-0.542
44.905	437.717	-0.543
44.913	437.800	-0.543
44.921	437.884	-0.543
44.930	437.967	-0.543
44.938	438.050	-0.543
44.946	438.132	-0.544
44.955	438.216	-0.544
44.963	438.300	-0.544
44.971	438.383	-0.544
44.980	438.466	-0.545
44.988	438.549	-0.545
44.996	438.633	-0.545
45.005	438.716	-0.545
45.013	438.799	-0.546
45.021	438.883	-0.546
45.030	438.966	-0.546
45.038	439.049	-0.546
45.046	439.132	-0.547
45.055	439.216	-0.547
45.063	439.298	-0.547
45.071	439.382	-0.547
45.080	439.465	-0.548
45.088	439.548	-0.548
45.096	439.632	-0.548
45.105	439.715	-0.548
45.113	439.798	-0.548
45.121	439.881	-0.548
45.130	439.964	-0.549
45.138	440.048	-0.549
45.146	440.130	-0.549
45.155	440.214	-0.549
45.163	440.297	-0.549
45.171	440.381	-0.549
45.180	440.464	-0.550
45.188	440.547	-0.550
45.196	440.630	-0.550
45.205	440.714	-0.550
45.213	440.797	-0.550
45.221	440.880	-0.550
45.230	440.963	-0.551
45.238	441.047	-0.551
45.246	441.129	-0.551
45.255	441.213	-0.551
45.263	441.296	-0.551
45.271	441.379	-0.552
45.280	441.463	-0.552
45.288	441.545	-0.552
45.296	441.630	-0.552
45.305	441.713	-0.553
45.313	441.796	-0.553
45.321	441.879	-0.553
45.330	441.963	-0.553
45.338	442.045	-0.554
45.346	442.129	-0.554
45.355	442.212	-0.554
45.363	442.295	-0.554
45.371	442.378	-0.554
45.380	442.461	-0.555
45.388	442.545	-0.555
45.396	442.627	-0.555
45.405	442.711	-0.555
45.413	442.794	-0.555
45.421	442.878	-0.555
45.430	442.961	-0.556
45.438	443.044	-0.556
45.446	443.127	-0.556
45.455	443.210	-0.556
45.463	443.294	-0.556
45.471	443.377	-0.557
45.480	443.460	-0.557
45.488	443.543	-0.557
45.496	443.627	-0.557
45.505	443.710	-0.558
45.513	443.793	-0.558
45.521	443.876	-0.558
45.530	443.960	-0.558
45.538	444.043	-0.559
45.546	444.126	-0.559
45.555	444.209	-0.559
45.563	444.293	-0.560
45.571	444.375	-0.560
45.580	444.459	-0.560
45.588	444.542	-0.560
45.596	444.625	-0.561
45.605	444.708	-0.561
45.613	444.792	-0.561
45.621	444.875	-0.562
45.630	444.958	-0.562
45.638	445.041	-0.562
45.646	445.124	-0.562
45.655	445.208	-0.563
45.663	445.291	-0.563
45.671	445.375	-0.563
45.680	445.458	-0.564
45.688	445.541	-0.564
45.696	445.624	-0.564
45.705	445.707	-0.564
45.713	445.790	-0.565
45.721	445.874	-0.565
45.730	445.957	-0.565
45.738	446.040	-0.566
45.746	446.124	-0.566
45.755	446.207	-0.566
45.763	446.290	-0.566
45.771	446.374	-0.567
45.780	446.457	-0.567
45.788	446.540	-0.567
45.796	446.623	-0.568
45.805	446.707	-0.568
45.813	446.790	-0.568
45.821	446.873	-0.568
45.830	446.956	-0.569
45.838	447.039	-0.569
45.846	447.123	-0.569
45.855	447.206	-0.570
45.863	447.289	-0.570
45.871	447.373	-0.570
45.880	447.456	-0.570
45.888	447.539	-0.571
45.896	447.623	-0.571
45.905	447.706	-0.571
45.913	447.789	-0.572
45.921	447.872	-0.572
45.930	447.955	-0.572
45.938	448.038	-0.572
45.946	448.122	-0.573
45.955	448.205	-0.573
45.963	448.288	-0.573
45.971	448.372	-0.574
45.980	448.455	-0.574
45.988	448.538	-0.574
45.996	448.622	-0.574
46.005	448.704	-0.575
46.013	448.788	-0.575
46.021	448.871	-0.575
46.030	448.954	-0.575
46.038	449.037	-0.576
46.046	449.122	-0.576
46.055	449.204	-0.576
46.063	449.287	-0.576
46.071	449.371	-0.577
46.080	449.454	-0.577
46.088	449.537	-0.577
46.096	449.621	-0.577
46.105	449.704	-0.578
46.113	449.787	-0.578
46.121	449.870	-0.578
46.130	449.953	-0.578
46.138	450.037	-0.579
46.146	450.121	-0.579
46.155	450.203	-0.579
46.163	450.287	-0.579
46.171	450.370	-0.579
46.180	450.453	-0.580
46.188	450.537	-0.580
46.196	450.620	-0.580
46.205	450.703	-0.581
46.213	450.786	-0.581
46.221	450.869	-0.581
46.230	450.952	-0.581
46.238	451.036	-0.582
46.246	451.119	-0.582
46.255	451.203	-0.582
46.263	451.286	-0.582
46.271	451.369	-0.583
46.280	451.452	-0.583
46.288	451.535	-0.583
46.296	451.618	-0.583
46.305	451.702	-0.584
46.313	451.785	-0.584
46.321	451.868	-0.584
46.330	451.951	-0.584
46.338	452.034	-0.584
46.346	452.118	-0.585
46.355	452.201	-0.585
46.363	452.284	-0.585
46.371	452.368	-0.585
46.380	452.451	-0.586
46.388	452.534	-0.586
46.396	452.618	-0.586
46.405	452.701	-0.586
46.413	452.784	-0.587
46.421	452.867	-0.587
46.430	452.951	-0.587
46.438	453.034	-0.587
46.446	453.116	-0.587
46.455	453.200	-0.588
46.463	453.284	-0.588
46.471	453.366	-0.588
46.480	453.450	-0.588
46.488	453.533	-0.589
46.496	453.616	-0.589
46.505	453.699	-0.589
46.513	453.783	-0.589
46.521	453.866	-0.590
46.530	453.950	-0.590
46.538	454.033	-0.590
46.546	454.116	-0.590
46.555	454.199	-0.590
46.563	454.282	-0.591
46.571	454.366	-0.591
46.580	454.449	-0.591
46.588	454.532	-0.591
46.596	454.615	-0.592
46.605	454.698	-0.592
46.613	454.781	-0.592
46.621	454.865	-0.592
46.630	454.948	-0.593
46.638	455.031	-0.593
46.646	455.114	-0.593
46.655	455.198	-0.594
46.663	455.280	-0.594
46.671	455.364	-0.594
46.680	455.447	-0.594
46.688	455.531	-0.595
46.696	455.614	-0.595
46.705	455.697	-0.595
46.713	455.780	-0.596
46.721	455.863	-0.596
46.730	455.947	-0.596
46.738	456.030	-0.597
46.746	456.113	-0.597
46.755	456.196	-0.597
46.763	456.279	-0.598
46.771	456.363	-0.598
46.780	456.446	-0.598
46.788	456.529	-0.599
46.796	456.612	-0.599
46.805	456.695	-0.599
46.813	456.779	-0.600
46.821	456.862	-0.600
46.830	456.945	-0.600
46.838	457.028	-0.600
46.846	457.112	-0.601
46.855	457.195	-0.601
46.863	457.278	-0.601
46.871	457.361	-0.602
46.880	457.444	-0.602
46.888	457.528	-0.603
46.896	457.611	-0.603
46.905	457.694	-0.603
46.913	457.778	-0.604
46.921	457.861	-0.604
46.930	457.943	-0.604
46.938	458.027	-0.605
46.946	458.110	-0.605
46.955	458.194	-0.605
46.963	458.277	-0.606
46.971	458.361	-0.606
46.980	458.444	-0.607
46.988	458.527	-0.607
46.996	458.610	-0.608
47.005	458.693	-0.608
47.013	458.776	-0.609
47.021	458.860	-0.609
47.030	458.943	-0.610
47.038	459.026	-0.611
47.046	459.110	-0.611
47.055	459.193	-0.612
47.063	459.276	-0.612
47.071	459.359	-0.613
47.080	459.443	-0.614
47.088	459.525	-0.614
47.096	459.609	-0.615
47.105	459.692	-0.615
47.113	459.776	-0.616
47.121	459.859	-0.616
47.130	459.942	-0.617
47.138	460.025	-0.617
47.146	460.108	-0.618
47.155	460.192	-0.619
47.163	460.275	-0.619
47.171	460.358	-0.620
47.180	460.441	-0.620
47.188	460.525	-0.621
47.196	460.608	-0.621
47.205	460.691	-0.622
47.213	460.774	-0.623
47.221	460.858	-0.623
47.230	460.942	-0.624
47.238	461.025	-0.624
47.246	461.108	-0.625
47.255	461.191	-0.626
47.263	461.274	-0.626
47.271	461.358	-0.627
47.280	461.441	-0.627
47.288	461.524	-0.627
47.296	461.608	-0.626
47.305	461.691	-0.626
47.313	461.774	-0.626
47.321	461.858	-0.626
47.330	461.941	-0.626
47.338	462.025	-0.625
47.346	462.108	-0.625
47.355	462.191	-0.625
47.363	462.275	-0.625
47.371	462.358	-0.625
47.380	462.442	-0.625
47.388	462.524	-0.625
47.396	462.608	-0.625
47.405	462.691	-0.625
47.413	462.775	-0.625
47.421	462.858	-0.625
47.430	462.941	-0.625
47.438	463.024	-0.625
47.446	463.108	-0.625
47.455	463.191	-0.625
47.463	463.274	-0.625
47.471	463.357	-0.624
47.480	463.440	-0.624
47.488	463.524	-0.624
47.496	463.607	-0.624
47.505	463.690	-0.624
47.513	463.773	-0.624
47.521	463.857	-0.624
47.530	463.940	-0.624
47.538	464.024	-0.624
47.546	464.107	-0.624
47.555	464.190	-0.624
47.563	464.273	-0.624
47.571	464.356	-0.625
47.580	464.440	-0.625
47.588	464.523	-0.625
47.596	464.606	-0.625
47.605	464.689	-0.625
47.613	464.772	-0.625
47.621	464.856	-0.625
47.630	464.939	-0.625
47.638	465.022	-0.625
47.646	465.105	-0.625
47.655	465.188	-0.625
47.663	465.272	-0.625
47.671	465.354	-0.625
47.680	465.438	-0.626
47.688	465.521	-0.626
47.696	465.605	-0.626
47.705	465.688	-0.626
47.713	465.771	-0.626
47.721	465.854	-0.626
47.730	465.938	-0.626
47.738	466.020	-0.626
47.746	466.104	-0.626
47.755	466.187	-0.626
47.763	466.270	-0.626
47.771	466.354	-0.626
47.780	466.437	-0.626
47.788	466.520	-0.626
47.796	466.603	-0.626
47.805	466.687	-0.627
47.813	466.769	-0.627
47.821	466.853	-0.627
47.830	466.935	-0.627
47.838	467.019	-0.627
47.846	467.102	-0.627
47.855	467.185	-0.627
47.863	467.268	-0.627
47.871	467.352	-0.627
47.880	467.435	-0.627
47.888	467.518	-0.627
47.896	467.602	-0.628
47.905	467.685	-0.628
47.913	467.768	-0.628
47.921	467.851	-0.628
47.930	467.934	-0.628
47.938	468.017	-0.628
47.946	468.101	-0.628
47.955	468.183	-0.628
47.963	468.267	-0.629
47.971	468.351	-0.629
47.980	468.433	-0.629
47.988	468.517	-0.629
47.996	468.600	-0.629
48.005	468.684	-0.629
48.013	468.767	-0.629
48.021	468.850	-0.630
48.030	468.933	-0.630
48.038	469.016	-0.630
48.046	469.100	-0.630
48.055	469.183	-0.630
48.063	469.267	-0.631
48.071	469.349	-0.631
48.080	469.432	-0.631
48.088	469.516	-0.631
48.096	469.599	-0.631
48.105	469.682	-0.631
48.113	469.766	-0.631
48.121	469.849	-0.632
48.130	469.932	-0.632
48.138	470.016	-0.632
48.146	470.098	-0.632
48.155	470.182	-0.632
48.163	470.265	-0.632
48.171	470.348	-0.632
48.180	470.432	-0.633
48.188	470.515	-0.633
48.196	470.598	-0.633
48.205	470.681	-0.633
48.213	470.765	-0.633
48.221	470.848	-0.633
48.230	470.931	-0.633
48.238	471.014	-0.634
48.246	471.098	-0.634
48.255	471.180	-0.634
48.263	471.264	-0.634
48.271	471.347	-0.634
48.280	471.431	-0.634
48.288	471.514	-0.634
48.296	471.597	-0.635
48.305	471.680	-0.635
48.313	471.763	-0.635
48.321	471.846	-0.635
48.330	471.929	-0.635
48.338	472.013	-0.635
48.346	472.096	-0.636
48.355	472.180	-0.636
48.363	472.263	-0.636
48.371	472.345	-0.636
48.380	472.429	-0.636
48.388	472.512	-0.637
48.396	472.596	-0.637
48.405	472.679	-0.637
48.413	472.762	-0.637
48.421	472.845	-0.637
48.430	472.929	-0.638
48.438	473.012	-0.638
48.446	473.095	-0.638
48.455	473.178	-0.639
48.463	473.261	-0.639
48.471	473.344	-0.639
48.480	473.428	-0.639
48.488	473.512	-0.640
48.496	473.595	-0.640
48.505	473.678	-0.640
48.513	473.761	-0.641
48.521	473.844	-0.641
48.530	473.927	-0.641
48.538	474.011	-0.642
48.546	474.094	-0.642
48.555	474.177	-0.642
48.563	474.260	-0.643
48.571	474.343	-0.643
48.580	474.427	-0.643
48.588	474.511	-0.644
48.596	474.594	-0.644
48.605	474.676	-0.644
48.613	474.760	-0.644
48.621	474.843	-0.645
48.630	474.926	-0.645
48.638	475.009	-0.645
48.646	475.093	-0.646
48.655	475.176	-0.646
48.663	475.259	-0.646
48.671	475.343	-0.646
48.680	475.426	-0.647
48.688	475.509	-0.647
48.696	475.592	-0.647
48.705	475.676	-0.648
48.713	475.759	-0.648
48.721	475.842	-0.648
48.730	475.925	-0.648
48.738	476.008	-0.648
48.746	476.092	-0.649
48.755	476.175	-0.649
48.763	476.258	-0.649
48.771	476.342	-0.649
48.780	476.425	-0.649
48.788	476.508	-0.649
48.796	476.591	-0.650
48.805	476.674	-0.650
48.813	476.757	-0.650
48.821	476.841	-0.650
48.830	476.924	-0.651
48.838	477.007	-0.651
48.846	477.091	-0.651
48.855	477.174	-0.651
48.863	477.257	-0.651
48.871	477.340	-0.652
48.880	477.424	-0.652
48.888	477.507	-0.652
48.896	477.590	-0.652
48.905	477.673	-0.652
48.913	477.756	-0.653
48.921	477.840	-0.653
48.930	477.923	-0.653
48.938	478.007	-0.653
48.946	478.090	-0.653
48.955	478.173	-0.654
48.963	478.257	-0.654
48.971	478.339	-0.654
48.980	478.423	-0.654
48.988	478.506	-0.654
48.996	478.589	-0.655
49.005	478.673	-0.655
49.013	478.756	-0.655
49.021	478.839	-0.655
49.030	478.923	-0.656
49.038	479.005	-0.656
49.046	479.089	-0.656
49.055	479.172	-0.656
49.063	479.255	-0.656
49.071	479.338	-0.657
49.080	479.422	-0.657
49.088	479.505	-0.657
49.096	479.588	-0.657
49.105	479.672	-0.657
49.113	479.755	-0.657
49.121	479.838	-0.657
49.130	479.922	-0.658
49.138	480.005	-0.658
49.146	480.088	-0.657
49.155	480.171	-0.657
49.163	480.255	-0.657
49.171	480.338	-0.657
49.180	480.422	-0.657
49.188	480.505	-0.657
49.196	480.588	-0.657
49.205	480.671	-0.657
49.213	480.754	-0.657
49.221	480.838	-0.657
49.230	480.921	-0.657
49.238	481.005	-0.657
49.246	481.088	-0.657
49.255	481.171	-0.657
49.263	481.254	-0.657
49.271	481.337	-0.657
49.280	481.421	-0.657
49.288	481.504	-0.657
49.296	481.587	-0.658
49.305	481.671	-0.658
49.313	481.754	-0.657
49.321	481.837	-0.658
49.330	481.921	-0.658
49.338	482.004	-0.658
49.346	482.087	-0.658
49.355	482.171	-0.658
