t /s	T /°C	HF /mw
8.838	0.114	-4.731
8.846	0.283	-4.735
8.854	0.448	-4.739
8.863	0.614	-4.743
8.871	0.783	-4.747
8.879	0.950	-4.750
8.888	1.116	-4.753
8.896	1.286	-4.756
8.904	1.451	-4.758
8.913	1.618	-4.760
8.921	1.785	-4.762
8.929	1.952	-4.764
8.938	2.119	-4.766
8.946	2.289	-4.768
8.954	2.458	-4.770
8.963	2.621	-4.771
8.971	2.791	-4.773
8.979	2.960	-4.775
8.988	3.128	-4.777
8.996	3.291	-4.779
9.004	3.458	-4.781
9.013	3.627	-4.782
9.021	3.793	-4.784
9.029	3.962	-4.786
9.038	4.131	-4.787
9.046	4.292	-4.788
9.054	4.463	-4.790
9.063	4.629	-4.791
9.071	4.800	-4.792
9.079	4.963	-4.793
9.088	5.133	-4.795
9.096	5.303	-4.796
9.104	5.467	-4.797
9.113	5.636	-4.798
9.121	5.805	-4.799
9.129	5.973	-4.800
9.138	6.142	-4.802
9.146	6.311	-4.803
9.154	6.476	-4.804
9.163	6.641	-4.805
9.171	6.809	-4.806
9.179	6.974	-4.807
9.188	7.140	-4.808
9.196	7.310	-4.810
9.204	7.479	-4.811
9.213	7.642	-4.812
9.221	7.812	-4.813
9.229	7.980	-4.815
9.238	8.156	-4.817
9.246	8.317	-4.817
9.254	8.488	-4.818
9.263	8.653	-4.819
9.271	8.820	-4.820
9.279	8.990	-4.821
9.288	9.160	-4.822
9.296	9.325	-4.823
9.304	9.492	-4.824
9.313	9.661	-4.825
9.321	9.826	-4.825
9.329	9.996	-4.827
9.338	10.161	-4.828
9.346	10.330	-4.829
9.354	10.494	-4.830
9.363	10.662	-4.831
9.371	10.830	-4.832
9.379	10.997	-4.833
9.388	11.167	-4.833
9.396	11.336	-4.834
9.404	11.500	-4.835
9.413	11.668	-4.836
9.421	11.837	-4.837
9.429	12.006	-4.837
9.438	12.177	-4.838
9.446	12.340	-4.838
9.454	12.508	-4.839
9.463	12.677	-4.840
9.471	12.850	-4.841
9.479	13.015	-4.841
9.488	13.178	-4.841
9.496	13.347	-4.841
9.504	13.516	-4.842
9.513	13.691	-4.843
9.521	13.852	-4.843
9.529	14.022	-4.844
9.538	14.188	-4.845
9.546	14.356	-4.846
9.554	14.529	-4.847
9.563	14.690	-4.847
9.571	14.865	-4.848
9.579	15.034	-4.849
9.588	15.202	-4.849
9.596	15.368	-4.849
9.604	15.539	-4.850
9.613	15.709	-4.850
9.621	15.879	-4.851
9.629	16.042	-4.851
9.638	16.208	-4.851
9.646	16.377	-4.852
9.654	16.545	-4.853
9.663	16.708	-4.853
9.671	16.881	-4.854
9.679	17.051	-4.855
9.688	17.220	-4.855
9.696	17.388	-4.856
9.704	17.555	-4.856
9.713	17.725	-4.857
9.721	17.892	-4.857
9.729	18.060	-4.858
9.738	18.227	-4.858
9.746	18.397	-4.858
9.754	18.564	-4.858
9.763	18.731	-4.859
9.771	18.898	-4.859
9.779	19.070	-4.860
9.788	19.238	-4.861
9.796	19.402	-4.861
9.804	19.573	-4.862
9.813	19.740	-4.862
9.821	19.911	-4.863
9.829	20.077	-4.863
9.838	20.245	-4.864
9.846	20.418	-4.865
9.854	20.584	-4.865
9.863	20.753	-4.866
9.871	20.917	-4.866
9.879	21.091	-4.867
9.888	21.255	-4.867
9.896	21.418	-4.868
9.904	21.590	-4.869
9.913	21.757	-4.869
9.921	21.927	-4.870
9.929	22.093	-4.871
9.938	22.263	-4.871
9.946	22.430	-4.872
9.954	22.602	-4.872
9.963	22.768	-4.873
9.971	22.933	-4.874
9.979	23.102	-4.874
9.988	23.277	-4.875
9.996	23.446	-4.875
10.004	23.612	-4.876
10.013	23.779	-4.876
10.021	23.948	-4.877
10.029	24.115	-4.878
10.038	24.286	-4.879
10.046	24.452	-4.879
10.054	24.623	-4.880
10.063	24.791	-4.880
10.071	24.960	-4.881
10.079	25.129	-4.882
10.088	25.300	-4.883
10.096	25.468	-4.883
10.104	25.633	-4.884
10.113	25.799	-4.884
10.121	25.971	-4.885
10.129	26.133	-4.885
10.138	26.302	-4.886
10.146	26.469	-4.886
10.154	26.641	-4.887
10.163	26.808	-4.888
10.171	26.975	-4.888
10.179	27.144	-4.889
10.188	27.313	-4.890
10.196	27.485	-4.891
10.204	27.652	-4.891
10.213	27.818	-4.892
10.221	27.986	-4.892
10.229	28.157	-4.893
10.238	28.322	-4.893
10.246	28.491	-4.894
10.254	28.657	-4.894
10.263	28.824	-4.895
10.271	28.993	-4.896
10.279	29.159	-4.896
10.288	29.333	-4.898
10.296	29.503	-4.899
10.304	29.669	-4.899
10.313	29.836	-4.900
10.321	30.004	-4.901
10.329	30.174	-4.902
10.338	30.345	-4.903
10.346	30.515	-4.904
10.354	30.683	-4.905
10.363	30.848	-4.905
10.371	31.017	-4.906
10.379	31.183	-4.907
10.388	31.351	-4.907
10.396	31.523	-4.909
10.404	31.692	-4.909
10.413	31.857	-4.910
10.421	32.024	-4.910
10.429	32.195	-4.911
10.438	32.361	-4.912
10.446	32.528	-4.913
10.454	32.699	-4.913
10.463	32.865	-4.914
10.471	33.037	-4.915
10.479	33.201	-4.915
10.488	33.374	-4.916
10.496	33.544	-4.916
10.504	33.710	-4.917
10.513	33.876	-4.918
10.521	34.041	-4.918
10.529	34.208	-4.919
10.538	34.380	-4.920
10.546	34.544	-4.921
10.554	34.715	-4.922
10.563	34.882	-4.923
10.571	35.051	-4.924
10.579	35.219	-4.925
10.588	35.386	-4.926
10.596	35.552	-4.927
10.604	35.724	-4.928
10.613	35.889	-4.928
10.621	36.058	-4.930
10.629	36.223	-4.930
10.638	36.396	-4.931
10.646	36.566	-4.932
10.654	36.734	-4.932
10.663	36.899	-4.933
10.671	37.066	-4.934
10.679	37.238	-4.935
10.688	37.409	-4.936
10.696	37.576	-4.936
10.704	37.741	-4.936
10.713	37.910	-4.937
10.721	38.079	-4.938
10.729	38.249	-4.939
10.738	38.416	-4.940
10.746	38.581	-4.940
10.754	38.745	-4.941
10.763	38.917	-4.942
10.771	39.084	-4.943
10.779	39.259	-4.944
10.788	39.426	-4.945
10.796	39.590	-4.945
10.804	39.762	-4.946
10.813	39.927	-4.947
10.821	40.097	-4.948
10.829	40.265	-4.948
10.838	40.429	-4.948
10.846	40.597	-4.949
10.854	40.771	-4.950
10.863	40.936	-4.951
10.871	41.106	-4.952
10.879	41.272	-4.952
10.888	41.443	-4.953
10.896	41.611	-4.954
10.904	41.776	-4.955
10.913	41.942	-4.955
10.921	42.113	-4.956
10.929	42.280	-4.957
10.938	42.449	-4.957
10.946	42.619	-4.958
10.954	42.785	-4.958
10.963	42.949	-4.958
10.971	43.125	-4.959
10.979	43.293	-4.959
10.988	43.457	-4.959
10.996	43.625	-4.960
11.004	43.796	-4.961
11.013	43.965	-4.962
11.021	44.132	-4.962
11.029	44.297	-4.963
11.038	44.469	-4.964
11.046	44.635	-4.964
11.054	44.799	-4.965
11.063	44.969	-4.965
11.071	45.137	-4.966
11.079	45.303	-4.966
11.088	45.471	-4.966
11.096	45.641	-4.967
11.104	45.809	-4.967
11.113	45.978	-4.968
11.121	46.142	-4.968
11.129	46.308	-4.968
11.138	46.477	-4.969
11.146	46.651	-4.969
11.154	46.814	-4.969
11.163	46.981	-4.970
11.171	47.149	-4.970
11.179	47.315	-4.970
11.188	47.488	-4.971
11.196	47.657	-4.971
11.204	47.824	-4.971
11.213	47.993	-4.972
11.221	48.160	-4.972
11.229	48.328	-4.973
11.238	48.492	-4.973
11.246	48.662	-4.974
11.254	48.828	-4.974
11.263	48.997	-4.975
11.271	49.165	-4.975
11.279	49.339	-4.976
11.288	49.498	-4.976
11.296	49.671	-4.977
11.304	49.837	-4.977
11.313	50.006	-4.977
11.321	50.170	-4.978
11.329	50.343	-4.978
11.338	50.509	-4.979
11.346	50.680	-4.979
11.354	50.846	-4.979
11.363	51.015	-4.980
11.371	51.185	-4.980
11.379	51.357	-4.980
11.388	51.522	-4.979
11.396	51.689	-4.979
11.404	51.860	-4.979
11.413	52.024	-4.978
11.421	52.195	-4.978
11.429	52.364	-4.978
11.438	52.526	-4.977
11.446	52.695	-4.977
11.454	52.865	-4.977
11.463	53.031	-4.977
11.471	53.195	-4.977
11.479	53.366	-4.978
11.488	53.529	-4.977
11.496	53.702	-4.977
11.504	53.871	-4.977
11.513	54.038	-4.977
11.521	54.207	-4.976
11.529	54.376	-4.976
11.538	54.541	-4.976
11.546	54.711	-4.975
11.554	54.872	-4.974
11.563	55.048	-4.974
11.571	55.215	-4.974
11.579	55.384	-4.973
11.588	55.548	-4.972
11.596	55.708	-4.971
11.604	55.880	-4.971
11.613	56.047	-4.970
11.621	56.216	-4.969
11.629	56.384	-4.969
11.638	56.557	-4.969
11.646	56.724	-4.968
11.654	56.892	-4.967
11.663	57.058	-4.966
11.671	57.226	-4.966
11.679	57.393	-4.965
11.688	57.561	-4.964
11.696	57.730	-4.964
11.704	57.901	-4.963
11.713	58.069	-4.962
11.721	58.234	-4.961
11.729	58.405	-4.961
11.738	58.570	-4.961
11.746	58.740	-4.961
11.754	58.911	-4.961
11.763	59.074	-4.960
11.771	59.244	-4.960
11.779	59.411	-4.960
11.788	59.577	-4.960
11.796	59.742	-4.960
11.804	59.914	-4.960
11.813	60.083	-4.960
11.821	60.252	-4.961
11.829	60.420	-4.961
11.838	60.587	-4.961
11.846	60.759	-4.961
11.854	60.923	-4.961
11.863	61.091	-4.961
11.871	61.259	-4.961
11.879	61.426	-4.962
11.888	61.589	-4.961
11.896	61.762	-4.962
11.904	61.925	-4.962
11.913	62.096	-4.962
11.921	62.263	-4.962
11.929	62.428	-4.962
11.938	62.598	-4.963
11.946	62.764	-4.963
11.954	62.933	-4.963
11.963	63.102	-4.963
11.971	63.267	-4.963
11.979	63.440	-4.964
11.988	63.604	-4.964
11.996	63.777	-4.965
12.004	63.943	-4.965
12.013	64.106	-4.966
12.021	64.277	-4.967
12.029	64.448	-4.968
12.038	64.609	-4.968
12.046	64.779	-4.969
12.054	64.941	-4.970
12.063	65.109	-4.971
12.071	65.276	-4.972
12.079	65.442	-4.973
12.088	65.611	-4.975
12.096	65.782	-4.976
12.104	65.946	-4.977
12.113	66.117	-4.979
12.121	66.284	-4.981
12.129	66.455	-4.983
12.138	66.618	-4.985
12.146	66.783	-4.986
12.154	66.950	-4.988
12.163	67.117	-4.990
12.171	67.283	-4.992
12.179	67.453	-4.994
12.188	67.628	-4.997
12.196	67.786	-4.998
12.204	67.950	-5.000
12.213	68.124	-5.003
12.221	68.291	-5.005
12.229	68.457	-5.007
12.238	68.628	-5.010
12.246	68.789	-5.011
12.254	68.959	-5.014
12.263	69.127	-5.015
12.271	69.292	-5.017
12.279	69.463	-5.019
12.288	69.632	-5.021
12.296	69.802	-5.023
12.304	69.961	-5.024
12.313	70.127	-5.026
12.321	70.294	-5.027
12.329	70.463	-5.029
12.338	70.631	-5.030
12.346	70.799	-5.031
12.354	70.969	-5.032
12.363	71.137	-5.033
12.371	71.302	-5.034
12.379	71.467	-5.036
12.388	71.637	-5.037
12.396	71.805	-5.038
12.404	71.972	-5.039
12.413	72.141	-5.040
12.421	72.306	-5.041
12.429	72.475	-5.042
12.438	72.643	-5.043
12.446	72.810	-5.044
12.454	72.974	-5.045
12.463	73.142	-5.046
12.471	73.312	-5.047
12.479	73.480	-5.048
12.488	73.650	-5.049
12.496	73.819	-5.050
12.504	73.989	-5.051
12.513	74.154	-5.051
12.521	74.315	-5.052
12.529	74.487	-5.053
12.538	74.648	-5.053
12.546	74.818	-5.054
12.554	74.986	-5.055
12.563	75.156	-5.056
12.571	75.318	-5.056
12.579	75.489	-5.057
12.588	75.658	-5.057
12.596	75.824	-5.058
12.604	75.991	-5.058
12.613	76.159	-5.059
12.621	76.328	-5.060
12.629	76.493	-5.060
12.638	76.661	-5.061
12.646	76.829	-5.061
12.654	76.997	-5.062
12.663	77.164	-5.063
12.671	77.332	-5.064
12.679	77.500	-5.064
12.688	77.667	-5.064
12.696	77.838	-5.065
12.704	78.005	-5.065
12.713	78.171	-5.065
12.721	78.342	-5.065
12.729	78.507	-5.065
12.738	78.674	-5.065
12.746	78.843	-5.065
12.754	79.008	-5.065
12.763	79.175	-5.065
12.771	79.346	-5.065
12.779	79.509	-5.065
12.788	79.682	-5.065
12.796	79.847	-5.065
12.804	80.017	-5.065
12.813	80.183	-5.065
12.821	80.350	-5.065
12.829	80.520	-5.066
12.838	80.688	-5.066
12.846	80.854	-5.066
12.854	81.027	-5.066
12.863	81.194	-5.066
12.871	81.359	-5.067
12.879	81.534	-5.067
12.888	81.694	-5.067
12.896	81.861	-5.067
12.904	82.034	-5.068
12.913	82.199	-5.068
12.921	82.362	-5.068
12.929	82.534	-5.068
12.938	82.701	-5.068
12.946	82.868	-5.068
12.954	83.033	-5.068
12.963	83.204	-5.068
12.971	83.368	-5.068
12.979	83.536	-5.068
12.988	83.704	-5.068
12.996	83.873	-5.068
13.004	84.041	-5.068
13.013	84.208	-5.068
13.021	84.371	-5.068
13.029	84.541	-5.069
13.038	84.713	-5.069
13.046	84.873	-5.068
13.054	85.049	-5.069
13.063	85.211	-5.068
13.071	85.381	-5.068
13.079	85.551	-5.068
13.088	85.717	-5.068
13.096	85.889	-5.068
13.104	86.057	-5.068
13.113	86.220	-5.067
13.121	86.386	-5.067
13.129	86.554	-5.068
13.138	86.728	-5.068
13.146	86.893	-5.068
13.154	87.057	-5.067
13.163	87.226	-5.067
13.171	87.397	-5.068
13.179	87.566	-5.067
13.188	87.732	-5.068
13.196	87.898	-5.068
13.204	88.065	-5.068
13.213	88.231	-5.067
13.221	88.401	-5.066
13.229	88.571	-5.066
13.238	88.740	-5.066
13.246	88.909	-5.066
13.254	89.072	-5.066
13.263	89.242	-5.066
13.271	89.409	-5.066
13.279	89.575	-5.065
13.288	89.745	-5.065
13.296	89.909	-5.065
13.304	90.075	-5.066
13.313	90.244	-5.066
13.321	90.413	-5.066
13.329	90.575	-5.066
13.338	90.746	-5.066
13.346	90.909	-5.065
13.354	91.079	-5.065
13.363	91.248	-5.065
13.371	91.417	-5.065
13.379	91.582	-5.065
13.388	91.745	-5.064
13.396	91.920	-5.064
13.404	92.086	-5.064
13.413	92.255	-5.064
13.421	92.424	-5.063
13.429	92.590	-5.062
13.438	92.758	-5.062
13.446	92.929	-5.062
13.454	93.092	-5.061
13.463	93.261	-5.061
13.471	93.429	-5.060
13.479	93.596	-5.060
13.488	93.767	-5.060
13.496	93.932	-5.059
13.504	94.098	-5.059
13.513	94.267	-5.059
13.521	94.435	-5.059
13.529	94.603	-5.059
13.538	94.770	-5.058
13.546	94.938	-5.058
13.554	95.102	-5.058
13.563	95.274	-5.058
13.571	95.437	-5.057
13.579	95.602	-5.056
13.588	95.773	-5.056
13.596	95.938	-5.055
13.604	96.108	-5.055
13.613	96.277	-5.054
13.621	96.444	-5.054
13.629	96.613	-5.053
13.638	96.782	-5.053
13.646	96.950	-5.052
13.654	97.118	-5.052
13.663	97.283	-5.051
13.671	97.452	-5.051
13.679	97.619	-5.051
13.688	97.793	-5.051
13.696	97.955	-5.050
13.704	98.125	-5.049
13.713	98.293	-5.048
13.721	98.458	-5.047
13.729	98.628	-5.047
13.738	98.797	-5.046
13.746	98.964	-5.045
13.754	99.129	-5.044
13.763	99.300	-5.043
13.771	99.472	-5.042
13.779	99.632	-5.041
13.788	99.801	-5.040
13.796	99.969	-5.040
13.804	100.136	-5.039
13.813	100.310	-5.039
13.821	100.474	-5.038
13.829	100.642	-5.037
13.838	100.806	-5.036
13.846	100.974	-5.035
13.854	101.146	-5.035
13.863	101.314	-5.034
13.871	101.476	-5.032
13.879	101.639	-5.031
13.888	101.809	-5.030
13.896	101.971	-5.028
13.904	102.146	-5.027
13.913	102.308	-5.026
13.921	102.474	-5.025
13.929	102.645	-5.024
13.938	102.814	-5.023
13.946	102.991	-5.022
13.954	103.158	-5.021
13.963	103.326	-5.020
13.971	103.493	-5.019
13.979	103.664	-5.018
13.988	103.831	-5.017
13.996	104.001	-5.015
14.004	104.168	-5.014
14.013	104.334	-5.012
14.021	104.505	-5.012
14.029	104.670	-5.010
14.038	104.840	-5.009
14.046	105.003	-5.008
14.054	105.177	-5.008
14.063	105.342	-5.007
14.071	105.511	-5.007
14.079	105.677	-5.006
14.088	105.848	-5.006
14.096	106.012	-5.005
14.104	106.181	-5.004
14.113	106.344	-5.003
14.121	106.517	-5.003
14.129	106.685	-5.002
14.138	106.853	-5.001
14.146	107.018	-4.999
14.154	107.188	-4.999
14.163	107.354	-4.997
14.171	107.521	-4.996
14.179	107.692	-4.995
14.188	107.859	-4.994
14.196	108.027	-4.992
14.204	108.194	-4.991
14.213	108.363	-4.990
14.221	108.533	-4.989
14.229	108.697	-4.988
14.238	108.866	-4.987
14.246	109.034	-4.987
14.254	109.201	-4.986
14.263	109.372	-4.985
14.271	109.536	-4.985
14.279	109.699	-4.983
14.288	109.868	-4.983
14.296	110.039	-4.982
14.304	110.208	-4.981
14.313	110.375	-4.980
14.321	110.544	-4.978
14.329	110.716	-4.978
14.338	110.882	-4.977
14.346	111.047	-4.975
14.354	111.211	-4.974
14.363	111.379	-4.973
14.371	111.548	-4.972
14.379	111.715	-4.971
14.388	111.883	-4.969
14.396	112.054	-4.968
14.404	112.224	-4.967
14.413	112.385	-4.965
14.421	112.556	-4.964
14.429	112.724	-4.962
14.438	112.889	-4.960
14.446	113.062	-4.959
14.454	113.230	-4.958
14.463	113.399	-4.956
14.471	113.567	-4.955
14.479	113.736	-4.953
14.488	113.899	-4.952
14.496	114.068	-4.951
14.504	114.239	-4.949
14.513	114.405	-4.948
14.521	114.567	-4.947
14.529	114.739	-4.946
14.538	114.906	-4.945
14.546	115.076	-4.944
14.554	115.244	-4.942
14.563	115.409	-4.941
14.571	115.581	-4.939
14.579	115.745	-4.937
14.588	115.916	-4.936
14.596	116.078	-4.934
14.604	116.248	-4.932
14.613	116.416	-4.930
14.621	116.586	-4.928
14.629	116.751	-4.927
14.638	116.921	-4.925
14.646	117.087	-4.924
14.654	117.259	-4.923
14.663	117.423	-4.921
14.671	117.595	-4.920
14.679	117.763	-4.919
14.688	117.930	-4.918
14.696	118.098	-4.916
14.704	118.265	-4.915
14.713	118.431	-4.914
14.721	118.598	-4.912
14.729	118.765	-4.911
14.738	118.936	-4.909
14.746	119.107	-4.908
14.754	119.269	-4.907
14.763	119.439	-4.906
14.771	119.604	-4.904
14.779	119.774	-4.903
14.788	119.943	-4.902
14.796	120.112	-4.901
14.804	120.279	-4.899
14.813	120.450	-4.898
14.821	120.613	-4.897
14.829	120.783	-4.896
14.838	120.952	-4.894
14.846	121.118	-4.892
14.854	121.283	-4.890
14.863	121.457	-4.889
14.871	121.629	-4.888
14.879	121.791	-4.885
14.888	121.959	-4.884
14.896	122.126	-4.882
14.904	122.296	-4.881
14.913	122.464	-4.879
14.921	122.631	-4.877
14.929	122.799	-4.876
14.938	122.969	-4.874
14.946	123.134	-4.873
14.954	123.303	-4.871
14.963	123.472	-4.869
14.971	123.641	-4.868
14.979	123.804	-4.866
14.988	123.973	-4.865
14.996	124.140	-4.864
15.004	124.311	-4.862
15.013	124.479	-4.861
15.021	124.643	-4.859
15.029	124.813	-4.857
15.038	124.980	-4.855
15.046	125.147	-4.854
15.054	125.316	-4.852
15.063	125.481	-4.850
15.071	125.649	-4.848
15.079	125.819	-4.847
15.088	125.985	-4.845
15.096	126.153	-4.843
15.104	126.322	-4.841
15.113	126.488	-4.839
15.121	126.656	-4.837
15.129	126.820	-4.835
15.138	126.992	-4.833
15.146	127.160	-4.831
15.154	127.328	-4.829
15.163	127.498	-4.827
15.171	127.666	-4.825
15.179	127.832	-4.823
15.188	128.000	-4.821
15.196	128.170	-4.819
15.204	128.337	-4.817
15.213	128.504	-4.815
15.221	128.672	-4.813
15.229	128.839	-4.810
15.238	129.006	-4.808
15.246	129.178	-4.805
15.254	129.341	-4.803
15.263	129.510	-4.801
15.271	129.677	-4.799
15.279	129.847	-4.797
15.288	130.012	-4.794
15.296	130.179	-4.792
15.304	130.347	-4.790
15.313	130.514	-4.788
15.321	130.684	-4.786
15.329	130.851	-4.784
15.338	131.015	-4.781
15.346	131.189	-4.779
15.354	131.355	-4.776
15.363	131.524	-4.774
15.371	131.694	-4.773
15.379	131.864	-4.770
15.388	132.029	-4.768
15.396	132.197	-4.766
15.404	132.368	-4.764
15.413	132.535	-4.762
15.421	132.700	-4.760
15.429	132.867	-4.758
15.438	133.041	-4.756
15.446	133.206	-4.754
15.454	133.373	-4.751
15.463	133.541	-4.749
15.471	133.710	-4.747
15.479	133.874	-4.745
15.488	134.047	-4.743
15.496	134.211	-4.741
15.504	134.381	-4.739
15.513	134.550	-4.737
15.521	134.717	-4.735
15.529	134.883	-4.733
15.538	135.054	-4.731
15.546	135.218	-4.729
15.554	135.390	-4.727
15.563	135.553	-4.725
15.571	135.722	-4.722
15.579	135.892	-4.720
15.588	136.060	-4.718
15.596	136.227	-4.716
15.604	136.396	-4.714
15.613	136.561	-4.712
15.621	136.728	-4.709
15.629	136.896	-4.707
15.638	137.064	-4.705
15.646	137.232	-4.702
15.654	137.398	-4.700
15.663	137.566	-4.698
15.671	137.732	-4.695
15.679	137.904	-4.693
15.688	138.071	-4.690
15.696	138.236	-4.687
15.704	138.403	-4.685
15.713	138.573	-4.683
15.721	138.744	-4.681
15.729	138.908	-4.678
15.738	139.074	-4.676
15.746	139.243	-4.673
15.754	139.413	-4.672
15.763	139.582	-4.669
15.771	139.746	-4.667
15.779	139.915	-4.664
15.788	140.082	-4.662
15.796	140.249	-4.659
15.804	140.419	-4.656
15.813	140.584	-4.654
15.821	140.753	-4.651
15.829	140.922	-4.649
15.838	141.086	-4.646
15.846	141.258	-4.644
15.854	141.425	-4.641
15.863	141.591	-4.639
15.871	141.763	-4.637
15.879	141.925	-4.634
15.888	142.094	-4.632
15.896	142.261	-4.629
15.904	142.427	-4.626
15.913	142.596	-4.624
15.921	142.764	-4.621
15.929	142.934	-4.619
15.938	143.098	-4.616
15.946	143.268	-4.613
15.954	143.432	-4.610
15.963	143.599	-4.607
15.971	143.768	-4.604
15.979	143.936	-4.602
15.988	144.109	-4.599
15.996	144.272	-4.596
16.004	144.444	-4.594
16.013	144.608	-4.591
16.021	144.779	-4.588
16.029	144.944	-4.585
16.038	145.113	-4.583
16.046	145.279	-4.580
16.054	145.448	-4.578
16.063	145.617	-4.575
16.071	145.782	-4.572
16.079	145.946	-4.569
16.088	146.115	-4.566
16.096	146.286	-4.563
16.104	146.457	-4.560
16.113	146.618	-4.557
16.121	146.787	-4.554
16.129	146.958	-4.551
16.138	147.122	-4.548
16.146	147.289	-4.545
16.154	147.459	-4.542
16.163	147.626	-4.539
16.171	147.796	-4.536
16.179	147.963	-4.534
16.188	148.129	-4.530
16.196	148.298	-4.527
16.204	148.465	-4.523
16.213	148.631	-4.520
16.221	148.801	-4.516
16.229	148.966	-4.512
16.238	149.134	-4.509
16.246	149.300	-4.505
16.254	149.472	-4.502
16.263	149.639	-4.498
16.271	149.807	-4.494
16.279	149.973	-4.490
16.288	150.144	-4.486
16.296	150.313	-4.483
16.304	150.476	-4.480
16.313	150.646	-4.476
16.321	150.810	-4.473
16.329	150.981	-4.469
16.338	151.151	-4.466
16.346	151.314	-4.462
16.354	151.485	-4.459
16.363	151.651	-4.456
16.371	151.816	-4.453
16.379	151.984	-4.449
16.388	152.153	-4.445
16.396	152.317	-4.441
16.404	152.490	-4.437
16.413	152.661	-4.434
16.421	152.823	-4.430
16.429	152.989	-4.426
16.438	153.155	-4.422
16.446	153.329	-4.418
16.454	153.498	-4.414
16.463	153.661	-4.409
16.471	153.830	-4.406
16.479	153.993	-4.402
16.488	154.161	-4.398
16.496	154.330	-4.394
16.504	154.495	-4.390
16.513	154.667	-4.386
16.521	154.837	-4.382
16.529	155.005	-4.378
16.538	155.169	-4.375
16.546	155.339	-4.371
16.554	155.504	-4.367
16.563	155.675	-4.363
16.571	155.840	-4.358
16.579	156.009	-4.354
16.588	156.175	-4.350
16.596	156.344	-4.347
16.604	156.508	-4.342
16.613	156.678	-4.338
16.621	156.847	-4.334
16.629	157.013	-4.329
16.638	157.180	-4.325
16.646	157.353	-4.320
16.654	157.517	-4.316
16.663	157.685	-4.312
16.671	157.853	-4.307
16.679	158.025	-4.302
16.688	158.189	-4.298
16.696	158.358	-4.293
16.704	158.525	-4.289
16.713	158.694	-4.284
16.721	158.857	-4.280
16.729	159.031	-4.275
16.738	159.191	-4.270
16.746	159.364	-4.266
16.754	159.530	-4.262
16.763	159.700	-4.257
16.771	159.865	-4.253
16.779	160.035	-4.248
16.788	160.201	-4.243
16.796	160.371	-4.239
16.804	160.538	-4.234
16.813	160.707	-4.230
16.821	160.872	-4.226
16.829	161.042	-4.221
16.838	161.208	-4.217
16.846	161.376	-4.212
16.854	161.548	-4.207
16.863	161.710	-4.202
16.871	161.878	-4.198
16.879	162.052	-4.193
16.888	162.214	-4.188
16.896	162.383	-4.184
16.904	162.550	-4.179
16.913	162.717	-4.174
16.921	162.885	-4.170
16.929	163.052	-4.165
16.938	163.218	-4.161
16.946	163.388	-4.156
16.954	163.558	-4.152
16.963	163.722	-4.147
16.971	163.891	-4.143
16.979	164.060	-4.139
16.988	164.226	-4.135
16.996	164.397	-4.131
17.004	164.563	-4.127
17.013	164.729	-4.123
17.021	164.898	-4.118
17.029	165.068	-4.114
17.038	165.234	-4.111
17.046	165.402	-4.106
17.054	165.571	-4.102
17.063	165.739	-4.098
17.071	165.904	-4.094
17.079	166.073	-4.089
17.088	166.238	-4.085
17.096	166.408	-4.081
17.104	166.577	-4.078
17.113	166.744	-4.074
17.121	166.916	-4.069
17.129	167.080	-4.065
17.138	167.249	-4.062
17.146	167.421	-4.058
17.154	167.585	-4.054
17.163	167.749	-4.050
17.171	167.917	-4.046
17.179	168.086	-4.042
17.188	168.259	-4.039
17.196	168.427	-4.035
17.204	168.592	-4.032
17.213	168.756	-4.028
17.221	168.928	-4.024
17.229	169.096	-4.021
17.238	169.264	-4.017
17.246	169.426	-4.013
17.254	169.595	-4.010
17.263	169.763	-4.006
17.271	169.926	-4.003
17.279	170.098	-3.999
17.288	170.266	-3.996
17.296	170.432	-3.992
17.304	170.601	-3.989
17.313	170.769	-3.985
17.321	170.931	-3.982
17.329	171.101	-3.978
17.338	171.270	-3.975
17.346	171.435	-3.972
17.354	171.607	-3.969
17.363	171.775	-3.966
17.371	171.935	-3.963
17.379	172.106	-3.960
17.388	172.273	-3.957
17.396	172.442	-3.954
17.404	172.608	-3.951
17.413	172.780	-3.949
17.421	172.946	-3.946
17.429	173.112	-3.942
17.438	173.277	-3.939
17.446	173.447	-3.936
17.454	173.614	-3.932
17.463	173.782	-3.929
17.471	173.951	-3.925
17.479	174.117	-3.921
17.488	174.286	-3.918
17.496	174.454	-3.914
17.504	174.623	-3.911
17.513	174.791	-3.907
17.521	174.955	-3.904
17.529	175.121	-3.901
17.538	175.292	-3.899
17.546	175.457	-3.895
17.554	175.624	-3.893
17.563	175.790	-3.890
17.571	175.962	-3.887
17.579	176.129	-3.885
17.588	176.299	-3.882
17.596	176.462	-3.879
17.604	176.629	-3.876
17.613	176.795	-3.873
17.621	176.964	-3.870
17.629	177.131	-3.868
17.638	177.308	-3.865
17.646	177.469	-3.862
17.654	177.636	-3.859
17.663	177.803	-3.857
17.671	177.970	-3.855
17.679	178.140	-3.852
17.688	178.305	-3.849
17.696	178.473	-3.847
17.704	178.643	-3.844
17.713	178.808	-3.841
17.721	178.976	-3.839
17.729	179.144	-3.836
17.738	179.313	-3.834
17.746	179.480	-3.831
17.754	179.646	-3.828
17.763	179.813	-3.826
17.771	179.983	-3.824
17.779	180.147	-3.822
17.788	180.315	-3.820
17.796	180.481	-3.818
17.804	180.650	-3.815
17.813	180.817	-3.813
17.821	180.985	-3.812
17.829	181.150	-3.809
17.838	181.319	-3.807
17.846	181.493	-3.805
17.854	181.653	-3.803
17.863	181.823	-3.801
17.871	181.988	-3.798
17.879	182.156	-3.797
17.888	182.327	-3.795
17.896	182.492	-3.792
17.904	182.658	-3.790
17.913	182.825	-3.788
17.921	182.997	-3.786
17.929	183.161	-3.784
17.938	183.328	-3.783
17.946	183.498	-3.781
17.954	183.666	-3.779
17.963	183.831	-3.777
17.971	184.000	-3.776
17.979	184.167	-3.774
17.988	184.332	-3.773
17.996	184.502	-3.771
18.004	184.672	-3.769
18.013	184.838	-3.767
18.021	185.009	-3.765
18.029	185.168	-3.763
18.038	185.338	-3.761
18.046	185.509	-3.759
18.054	185.680	-3.757
18.063	185.845	-3.755
18.071	186.012	-3.752
18.079	186.175	-3.750
18.088	186.345	-3.748
18.096	186.517	-3.747
18.104	186.679	-3.745
18.113	186.849	-3.743
18.121	187.015	-3.740
18.129	187.181	-3.739
18.138	187.346	-3.737
18.146	187.517	-3.736
18.154	187.684	-3.734
18.163	187.852	-3.732
18.171	188.022	-3.731
18.179	188.186	-3.730
18.188	188.357	-3.728
18.196	188.524	-3.727
18.204	188.693	-3.725
18.213	188.858	-3.724
18.221	189.027	-3.723
18.229	189.193	-3.721
18.238	189.360	-3.720
18.246	189.526	-3.719
18.254	189.694	-3.718
18.263	189.861	-3.716
18.271	190.025	-3.715
18.279	190.197	-3.714
18.288	190.366	-3.713
18.296	190.533	-3.711
18.304	190.698	-3.710
18.313	190.869	-3.708
18.321	191.034	-3.707
18.329	191.205	-3.706
18.338	191.366	-3.704
18.346	191.531	-3.703
18.354	191.701	-3.702
18.363	191.867	-3.700
18.371	192.035	-3.699
18.379	192.200	-3.697
18.388	192.372	-3.695
18.396	192.541	-3.693
18.404	192.705	-3.692
18.413	192.871	-3.690
18.421	193.039	-3.688
18.429	193.208	-3.686
18.438	193.371	-3.684
18.446	193.539	-3.682
18.454	193.701	-3.680
18.463	193.878	-3.679
18.471	194.045	-3.677
18.479	194.214	-3.676
18.488	194.380	-3.674
18.496	194.546	-3.673
18.504	194.712	-3.672
18.513	194.881	-3.670
18.521	195.048	-3.669
18.529	195.217	-3.668
18.538	195.383	-3.667
18.546	195.547	-3.666
18.554	195.713	-3.665
18.563	195.883	-3.664
18.571	196.052	-3.663
18.579	196.212	-3.661
18.588	196.385	-3.661
18.596	196.553	-3.660
18.604	196.723	-3.660
18.613	196.889	-3.659
18.621	197.058	-3.657
18.629	197.226	-3.656
18.638	197.397	-3.656
18.646	197.557	-3.655
18.654	197.728	-3.654
18.663	197.896	-3.653
18.671	198.063	-3.653
18.679	198.231	-3.652
18.688	198.396	-3.651
18.696	198.562	-3.650
18.704	198.729	-3.649
18.713	198.898	-3.648
18.721	199.064	-3.647
18.729	199.231	-3.646
18.738	199.398	-3.645
18.746	199.568	-3.644
18.754	199.736	-3.643
18.763	199.902	-3.642
18.771	200.069	-3.642
18.779	200.236	-3.642
18.788	200.402	-3.641
18.796	200.572	-3.641
18.804	200.739	-3.641
18.813	200.906	-3.641
18.821	201.075	-3.641
18.829	201.242	-3.641
18.838	201.408	-3.640
18.846	201.574	-3.639
18.854	201.747	-3.639
18.863	201.915	-3.638
18.871	202.079	-3.638
18.879	202.250	-3.637
18.888	202.413	-3.636
18.896	202.581	-3.635
18.904	202.752	-3.635
18.913	202.915	-3.634
18.921	203.087	-3.633
18.929	203.255	-3.632
18.938	203.419	-3.631
18.946	203.588	-3.631
18.954	203.754	-3.631
18.963	203.918	-3.630
18.971	204.087	-3.630
18.979	204.261	-3.630
18.988	204.427	-3.629
18.996	204.594	-3.628
19.004	204.761	-3.628
19.013	204.927	-3.628
19.021	205.097	-3.627
19.029	205.266	-3.627
19.038	205.432	-3.626
19.046	205.596	-3.625
19.054	205.763	-3.625
19.063	205.930	-3.624
19.071	206.102	-3.624
19.079	206.269	-3.623
19.088	206.436	-3.623
19.096	206.605	-3.622
19.104	206.772	-3.622
19.113	206.938	-3.622
19.121	207.105	-3.622
19.129	207.274	-3.622
19.138	207.443	-3.622
19.146	207.609	-3.622
19.154	207.776	-3.623
19.163	207.942	-3.623
19.171	208.110	-3.623
19.179	208.282	-3.623
19.188	208.447	-3.623
19.196	208.616	-3.623
19.204	208.781	-3.623
19.213	208.948	-3.623
19.221	209.115	-3.623
19.229	209.284	-3.622
19.238	209.453	-3.622
19.246	209.621	-3.623
19.254	209.789	-3.623
19.263	209.958	-3.624
19.271	210.125	-3.624
19.279	210.294	-3.625
19.288	210.461	-3.625
19.296	210.628	-3.626
19.304	210.794	-3.627
19.313	210.962	-3.628
19.321	211.126	-3.629
19.329	211.298	-3.630
19.338	211.466	-3.631
19.346	211.631	-3.632
19.354	211.799	-3.634
19.363	211.964	-3.635
19.371	212.133	-3.636
19.379	212.300	-3.637
19.388	212.469	-3.638
19.396	212.634	-3.639
19.404	212.803	-3.640
19.413	212.971	-3.641
19.421	213.139	-3.642
19.429	213.306	-3.642
19.438	213.473	-3.643
19.446	213.640	-3.643
19.454	213.807	-3.643
19.463	213.976	-3.644
19.471	214.146	-3.644
19.479	214.311	-3.644
19.488	214.479	-3.644
19.496	214.647	-3.645
19.504	214.814	-3.645
19.513	214.981	-3.646
19.521	215.149	-3.646
19.529	215.314	-3.647
19.538	215.482	-3.647
19.546	215.650	-3.648
19.554	215.819	-3.650
19.563	215.982	-3.651
19.571	216.149	-3.653
19.579	216.318	-3.654
19.588	216.487	-3.656
19.596	216.654	-3.658
19.604	216.824	-3.660
19.613	216.988	-3.662
19.621	217.154	-3.664
19.629	217.316	-3.667
19.638	217.489	-3.668
19.646	217.657	-3.670
19.654	217.823	-3.671
19.663	217.994	-3.674
19.671	218.161	-3.675
19.679	218.328	-3.677
19.688	218.494	-3.678
19.696	218.660	-3.680
19.704	218.827	-3.681
19.713	218.994	-3.683
19.721	219.161	-3.686
19.729	219.330	-3.689
19.738	219.500	-3.692
19.746	219.662	-3.694
19.754	219.831	-3.698
19.763	220.000	-3.701
19.771	220.167	-3.704
19.779	220.335	-3.707
19.788	220.505	-3.710
19.796	220.671	-3.712
19.804	220.836	-3.713
19.813	221.004	-3.714
19.821	221.174	-3.716
19.829	221.345	-3.717
19.838	221.511	-3.719
19.846	221.679	-3.720
19.854	221.846	-3.720
19.863	222.010	-3.719
19.871	222.181	-3.719
19.879	222.346	-3.720
19.888	222.516	-3.720
19.896	222.677	-3.722
19.904	222.846	-3.723
19.913	223.015	-3.725
19.921	223.181	-3.725
19.929	223.348	-3.727
19.938	223.519	-3.729
19.946	223.684	-3.732
19.954	223.854	-3.734
19.963	224.019	-3.736
19.971	224.185	-3.739
19.979	224.347	-3.741
19.988	224.520	-3.743
19.996	224.685	-3.744
20.004	224.847	-3.746
20.013	225.024	-3.748
20.021	225.188	-3.749
20.029	225.352	-3.751
20.038	225.521	-3.754
20.046	225.692	-3.756
20.054	225.862	-3.759
20.063	226.024	-3.761
20.071	226.191	-3.763
20.079	226.365	-3.765
20.088	226.528	-3.767
20.096	226.692	-3.769
20.104	226.866	-3.772
20.113	227.032	-3.775
20.121	227.196	-3.777
20.129	227.372	-3.780
20.138	227.533	-3.781
20.146	227.702	-3.783
20.154	227.868	-3.785
20.163	228.038	-3.788
20.171	228.205	-3.791
20.179	228.375	-3.793
20.188	228.538	-3.796
20.196	228.707	-3.798
20.204	228.874	-3.800
20.213	229.034	-3.803
20.221	229.207	-3.806
20.229	229.376	-3.810
20.238	229.540	-3.813
20.246	229.712	-3.816
20.254	229.880	-3.818
20.263	230.048	-3.821
20.271	230.214	-3.824
20.279	230.378	-3.828
20.288	230.549	-3.831
20.296	230.716	-3.835
20.304	230.884	-3.839
20.313	231.050	-3.842
20.321	231.218	-3.845
20.329	231.383	-3.849
20.338	231.552	-3.853
20.346	231.715	-3.857
20.354	231.886	-3.861
20.363	232.053	-3.865
20.371	232.220	-3.869
20.379	232.392	-3.873
20.388	232.556	-3.877
20.396	232.722	-3.882
20.404	232.885	-3.885
20.413	233.053	-3.889
20.421	233.224	-3.893
20.429	233.392	-3.896
20.438	233.558	-3.900
20.446	233.722	-3.904
20.454	233.891	-3.907
20.463	234.060	-3.911
20.471	234.227	-3.915
20.479	234.394	-3.919
20.488	234.560	-3.923
20.496	234.727	-3.928
20.504	234.893	-3.932
20.513	235.062	-3.937
20.521	235.228	-3.941
20.529	235.395	-3.945
20.538	235.563	-3.950
20.546	235.729	-3.954
20.554	235.896	-3.959
20.563	236.061	-3.964
20.571	236.230	-3.969
20.579	236.393	-3.974
20.588	236.564	-3.978
20.596	236.728	-3.983
20.604	236.897	-3.989
20.613	237.063	-3.993
20.621	237.234	-3.999
20.629	237.399	-4.004
20.638	237.564	-4.009
20.646	237.731	-4.014
20.654	237.897	-4.019
20.663	238.060	-4.024
20.671	238.227	-4.030
20.679	238.391	-4.035
20.688	238.559	-4.040
20.696	238.725	-4.046
20.704	238.893	-4.051
20.713	239.067	-4.057
20.721	239.235	-4.063
20.729	239.399	-4.068
20.738	239.569	-4.074
20.746	239.732	-4.080
20.754	239.901	-4.086
20.763	240.072	-4.092
20.771	240.235	-4.098
20.779	240.402	-4.104
20.788	240.571	-4.110
20.796	240.737	-4.116
20.804	240.906	-4.123
20.813	241.072	-4.129
20.821	241.238	-4.136
20.829	241.403	-4.142
20.838	241.569	-4.149
20.846	241.735	-4.156
20.854	241.907	-4.164
20.863	242.070	-4.171
20.871	242.236	-4.178
20.879	242.402	-4.186
20.888	242.569	-4.194
20.896	242.737	-4.201
20.904	242.906	-4.210
20.913	243.070	-4.219
20.921	243.236	-4.228
20.929	243.406	-4.237
20.938	243.571	-4.246
20.946	243.736	-4.255
20.954	243.909	-4.265
20.963	244.073	-4.274
20.971	244.239	-4.283
20.979	244.403	-4.293
20.988	244.570	-4.301
20.996	244.733	-4.310
21.004	244.894	-4.319
21.013	245.064	-4.329
21.021	245.239	-4.338
21.029	245.402	-4.347
21.038	245.572	-4.357
21.046	245.740	-4.366
21.054	245.906	-4.376
21.063	246.073	-4.386
21.071	246.241	-4.396
21.079	246.405	-4.406
21.088	246.570	-4.416
21.096	246.737	-4.426
21.104	246.903	-4.436
21.113	247.071	-4.447
21.121	247.232	-4.457
21.129	247.403	-4.467
21.138	247.570	-4.478
21.146	247.737	-4.488
21.154	247.903	-4.499
21.163	248.070	-4.510
21.171	248.237	-4.521
21.179	248.403	-4.533
21.188	248.568	-4.545
21.196	248.735	-4.557
21.204	248.904	-4.569
21.213	249.068	-4.581
21.221	249.238	-4.594
21.229	249.403	-4.607
21.238	249.567	-4.620
21.246	249.734	-4.633
21.254	249.901	-4.647
21.263	250.068	-4.661
21.271	250.232	-4.675
21.279	250.400	-4.689
21.288	250.568	-4.704
21.296	250.734	-4.719
21.304	250.897	-4.733
21.313	251.066	-4.747
21.321	251.234	-4.762
21.329	251.398	-4.777
21.338	251.563	-4.792
21.346	251.728	-4.807
21.354	251.897	-4.823
21.363	252.062	-4.838
21.371	252.227	-4.854
21.379	252.396	-4.870
21.388	252.563	-4.886
21.396	252.732	-4.902
21.404	252.898	-4.919
21.413	253.060	-4.935
21.421	253.227	-4.952
21.429	253.394	-4.968
21.438	253.559	-4.985
21.446	253.723	-5.002
21.454	253.891	-5.018
21.463	254.058	-5.036
21.471	254.225	-5.054
21.479	254.389	-5.072
21.488	254.556	-5.091
21.496	254.729	-5.109
21.504	254.891	-5.128
21.513	255.054	-5.147
21.521	255.225	-5.167
21.529	255.385	-5.187
21.538	255.553	-5.207
21.546	255.721	-5.227
21.554	255.885	-5.246
21.563	256.053	-5.266
21.571	256.220	-5.286
21.579	256.382	-5.307
21.588	256.551	-5.328
21.596	256.720	-5.348
21.604	256.885	-5.369
21.613	257.047	-5.389
21.621	257.213	-5.409
21.629	257.382	-5.431
21.638	257.548	-5.452
21.646	257.717	-5.473
21.654	257.882	-5.495
21.663	258.042	-5.517
21.671	258.211	-5.538
21.679	258.380	-5.560
21.688	258.545	-5.583
21.696	258.712	-5.606
21.704	258.879	-5.629
21.713	259.047	-5.652
21.721	259.208	-5.675
21.729	259.377	-5.699
21.738	259.543	-5.722
21.746	259.708	-5.746
21.754	259.873	-5.770
21.763	260.041	-5.794
21.771	260.206	-5.817
21.779	260.376	-5.841
21.788	260.538	-5.865
21.796	260.707	-5.889
21.804	260.871	-5.913
21.813	261.035	-5.938
21.821	261.202	-5.962
21.829	261.368	-5.987
21.838	261.534	-6.012
21.846	261.702	-6.037
21.854	261.867	-6.062
21.863	262.035	-6.088
21.871	262.200	-6.113
21.879	262.363	-6.139
21.888	262.533	-6.164
21.896	262.700	-6.190
21.904	262.864	-6.215
21.913	263.026	-6.241
21.921	263.193	-6.267
21.929	263.362	-6.293
21.938	263.524	-6.319
21.946	263.692	-6.345
21.954	263.857	-6.371
21.963	264.024	-6.398
21.971	264.187	-6.424
21.979	264.352	-6.451
21.988	264.514	-6.477
21.996	264.688	-6.504
22.004	264.850	-6.530
22.013	265.022	-6.557
22.021	265.184	-6.584
22.029	265.353	-6.611
22.038	265.515	-6.638
22.046	265.679	-6.665
22.054	265.849	-6.693
22.063	266.013	-6.721
22.071	266.176	-6.748
22.079	266.343	-6.776
22.088	266.507	-6.804
22.096	266.676	-6.831
22.104	266.840	-6.858
22.113	267.006	-6.885
22.121	267.175	-6.912
22.129	267.339	-6.938
22.138	267.505	-6.963
22.146	267.671	-6.988
22.154	267.837	-7.013
22.163	268.001	-7.039
22.171	268.169	-7.065
22.179	268.334	-7.090
22.188	268.496	-7.115
22.196	268.663	-7.141
22.204	268.831	-7.167
22.213	268.998	-7.194
22.221	269.162	-7.221
22.229	269.328	-7.248
22.238	269.493	-7.275
22.246	269.661	-7.303
22.254	269.828	-7.330
22.263	269.988	-7.357
22.271	270.156	-7.386
22.279	270.324	-7.413
22.288	270.486	-7.440
22.296	270.655	-7.468
22.304	270.822	-7.495
22.313	270.986	-7.522
22.321	271.154	-7.549
22.329	271.314	-7.576
22.338	271.483	-7.603
22.346	271.647	-7.629
22.354	271.813	-7.655
22.363	271.983	-7.681
22.371	272.146	-7.707
22.379	272.309	-7.733
22.388	272.479	-7.759
22.396	272.644	-7.784
22.404	272.812	-7.810
22.413	272.977	-7.835
22.421	273.141	-7.861
22.429	273.311	-7.886
22.438	273.480	-7.912
22.446	273.643	-7.937
22.454	273.807	-7.962
22.463	273.976	-7.988
22.471	274.138	-8.013
22.479	274.304	-8.038
22.488	274.471	-8.063
22.496	274.640	-8.088
22.504	274.801	-8.111
22.513	274.972	-8.136
22.521	275.132	-8.160
22.529	275.300	-8.183
22.538	275.464	-8.206
22.546	275.631	-8.229
22.554	275.796	-8.251
22.563	275.965	-8.274
22.571	276.132	-8.297
22.579	276.293	-8.320
22.588	276.461	-8.343
22.596	276.631	-8.366
22.604	276.796	-8.388
22.613	276.961	-8.410
22.621	277.131	-8.432
22.629	277.292	-8.454
22.638	277.461	-8.476
22.646	277.624	-8.497
22.654	277.792	-8.518
22.663	277.959	-8.539
22.671	278.124	-8.560
22.679	278.292	-8.581
22.688	278.459	-8.601
22.696	278.624	-8.621
22.704	278.790	-8.641
22.713	278.957	-8.660
22.721	279.123	-8.680
22.729	279.289	-8.699
22.738	279.455	-8.719
22.746	279.621	-8.738
22.754	279.784	-8.757
22.763	279.950	-8.775
22.771	280.116	-8.794
22.779	280.285	-8.813
22.788	280.453	-8.831
22.796	280.617	-8.849
22.804	280.785	-8.867
22.813	280.952	-8.884
22.821	281.118	-8.902
22.829	281.282	-8.919
22.838	281.449	-8.935
22.846	281.617	-8.952
22.854	281.787	-8.968
22.863	281.951	-8.985
22.871	282.115	-9.001
22.879	282.283	-9.017
22.888	282.451	-9.034
22.896	282.618	-9.050
22.904	282.783	-9.065
22.913	282.949	-9.080
22.921	283.112	-9.095
22.929	283.285	-9.110
22.938	283.447	-9.124
22.946	283.615	-9.138
22.954	283.785	-9.152
22.963	283.952	-9.165
22.971	284.117	-9.179
22.979	284.281	-9.192
22.988	284.451	-9.205
22.996	284.614	-9.218
23.004	284.780	-9.230
23.013	284.945	-9.243
23.021	285.113	-9.256
23.029	285.281	-9.268
23.038	285.443	-9.280
23.046	285.602	-9.292
23.054	285.771	-9.303
23.063	285.939	-9.314
23.071	286.109	-9.325
23.079	286.274	-9.335
23.088	286.453	-9.346
23.096	286.619	-9.356
23.104	286.787	-9.367
23.113	286.949	-9.378
23.121	287.118	-9.387
23.129	287.282	-9.396
23.138	287.448	-9.405
23.146	287.621	-9.415
23.154	287.785	-9.424
23.163	287.950	-9.433
23.171	288.118	-9.443
23.179	288.284	-9.452
23.188	288.454	-9.460
23.196	288.620	-9.467
23.204	288.784	-9.475
23.213	288.954	-9.483
23.221	289.121	-9.490
23.229	289.293	-9.497
23.238	289.457	-9.504
23.246	289.623	-9.509
23.254	289.792	-9.515
23.263	289.957	-9.520
23.271	290.125	-9.526
23.279	290.287	-9.530
23.288	290.456	-9.534
23.296	290.624	-9.538
23.304	290.788	-9.543
23.313	290.960	-9.548
23.321	291.125	-9.552
23.329	291.294	-9.556
23.338	291.464	-9.558
23.346	291.630	-9.560
23.354	291.796	-9.562
23.363	291.963	-9.564
23.371	292.135	-9.565
23.379	292.297	-9.566
23.388	292.467	-9.565
23.396	292.632	-9.564
23.404	292.799	-9.562
23.413	292.967	-9.560
23.421	293.138	-9.558
23.429	293.303	-9.555
23.438	293.472	-9.550
23.446	293.639	-9.545
23.454	293.810	-9.540
23.463	293.976	-9.534
23.471	294.143	-9.527
23.479	294.313	-9.520
23.488	294.479	-9.511
23.496	294.647	-9.501
23.504	294.818	-9.491
23.513	294.984	-9.480
23.521	295.149	-9.468
23.529	295.316	-9.456
23.538	295.488	-9.442
23.546	295.658	-9.426
23.554	295.827	-9.410
23.563	295.996	-9.392
23.571	296.162	-9.374
23.579	296.329	-9.353
23.588	296.502	-9.332
23.596	296.670	-9.309
23.604	296.843	-9.285
23.613	297.007	-9.259
23.621	297.177	-9.232
23.629	297.345	-9.203
23.638	297.514	-9.172
23.646	297.682	-9.139
23.654	297.854	-9.105
23.663	298.024	-9.068
23.671	298.193	-9.029
23.679	298.367	-8.989
23.688	298.535	-8.946
23.696	298.708	-8.901
23.704	298.879	-8.853
23.713	299.053	-8.803
23.721	299.219	-8.750
23.729	299.389	-8.695
23.738	299.561	-8.637
23.746	299.731	-8.576
23.754	299.905	-8.511
23.763	300.076	-8.443
23.771	300.248	-8.372
23.779	300.423	-8.298
23.788	300.594	-8.221
23.796	300.765	-8.140
23.804	300.936	-8.055
23.813	301.113	-7.966
23.821	301.283	-7.873
23.829	301.460	-7.776
23.838	301.633	-7.676
23.846	301.808	-7.571
23.854	301.984	-7.460
23.863	302.156	-7.345
23.871	302.331	-7.225
23.879	302.504	-7.100
23.888	302.683	-6.969
23.896	302.858	-6.834
23.904	303.030	-6.693
23.913	303.209	-6.546
23.921	303.384	-6.392
23.929	303.564	-6.232
23.938	303.742	-6.067
23.946	303.917	-5.895
23.954	304.095	-5.716
23.963	304.279	-5.531
23.971	304.459	-5.338
23.979	304.633	-5.138
23.988	304.812	-4.931
23.996	304.993	-4.716
24.004	305.174	-4.493
24.013	305.354	-4.263
24.021	305.537	-4.025
24.029	305.721	-3.779
24.038	305.901	-3.524
24.046	306.082	-3.260
24.054	306.265	-2.989
24.063	306.453	-2.708
24.071	306.640	-2.418
24.079	306.821	-2.119
24.088	307.004	-1.813
24.096	307.188	-1.497
24.104	307.378	-1.172
24.113	307.563	-0.838
24.121	307.749	-0.495
24.129	307.937	-0.143
24.138	308.126	0.217
24.146	308.321	0.585
24.154	308.505	0.964
24.163	308.697	1.351
24.171	308.882	1.747
24.179	309.076	2.150
24.188	309.263	2.561
24.196	309.458	2.979
24.204	309.646	3.404
24.213	309.835	3.836
24.221	310.026	4.274
24.229	310.222	4.719
24.238	310.409	5.168
24.246	310.603	5.623
24.254	310.796	6.083
24.263	310.985	6.549
24.271	311.181	7.020
24.279	311.369	7.495
24.288	311.566	7.976
24.296	311.754	8.460
24.304	311.951	8.950
24.313	312.143	9.443
24.321	312.340	9.939
24.329	312.531	10.440
24.338	312.726	10.944
24.346	312.921	11.450
24.354	313.113	11.960
24.363	313.308	12.473
24.371	313.502	12.988
24.379	313.694	13.505
24.388	313.888	14.024
24.396	314.087	14.544
24.404	314.281	15.067
24.413	314.472	15.590
24.421	314.671	16.114
24.429	314.865	16.639
24.438	315.056	17.164
24.446	315.250	17.689
24.454	315.445	18.214
24.463	315.640	18.738
24.471	315.830	19.262
24.479	316.024	19.784
24.488	316.221	20.304
24.496	316.414	20.820
24.504	316.604	21.334
24.513	316.800	21.843
24.521	316.988	22.347
24.529	317.180	22.845
24.538	317.368	23.337
24.546	317.558	23.821
24.554	317.747	24.297
24.563	317.934	24.764
24.571	318.124	25.222
24.579	318.314	25.670
24.588	318.496	26.106
24.596	318.686	26.531
24.604	318.870	26.944
24.613	319.053	27.344
24.621	319.235	27.730
24.629	319.421	28.103
24.638	319.607	28.461
24.646	319.785	28.805
24.654	319.964	29.133
24.663	320.145	29.446
24.671	320.326	29.746
24.679	320.506	30.031
24.688	320.684	30.302
24.696	320.862	30.559
24.704	321.039	30.803
24.713	321.215	31.033
24.721	321.390	31.249
24.729	321.566	31.452
24.738	321.739	31.644
24.746	321.919	31.822
24.754	322.087	31.988
24.763	322.261	32.141
24.771	322.433	32.283
24.779	322.605	32.413
24.788	322.776	32.531
24.796	322.947	32.638
24.804	323.117	32.733
24.813	323.286	32.817
24.821	323.455	32.890
24.829	323.623	32.952
24.838	323.789	33.002
24.846	323.963	33.043
24.854	324.131	33.072
24.863	324.293	33.090
24.871	324.458	33.098
24.879	324.624	33.096
24.888	324.786	33.086
24.896	324.958	33.065
24.904	325.120	33.034
24.913	325.282	32.994
24.921	325.444	32.946
24.929	325.609	32.889
24.938	325.769	32.823
24.946	325.930	32.748
24.954	326.094	32.665
24.963	326.259	32.573
24.971	326.412	32.472
24.979	326.574	32.364
24.988	326.735	32.249
24.996	326.893	32.126
25.004	327.056	31.995
25.013	327.216	31.857
25.021	327.372	31.713
25.029	327.529	31.561
25.038	327.688	31.402
25.046	327.843	31.237
25.054	328.001	31.065
25.063	328.160	30.887
25.071	328.319	30.702
25.079	328.473	30.511
25.088	328.628	30.312
25.096	328.782	30.108
25.104	328.940	29.897
25.113	329.090	29.680
25.121	329.243	29.456
25.129	329.399	29.226
25.138	329.555	28.990
25.146	329.708	28.748
25.154	329.861	28.500
25.163	330.011	28.246
25.171	330.168	27.986
25.179	330.320	27.722
25.188	330.470	27.454
25.196	330.623	27.180
25.204	330.773	26.901
25.213	330.924	26.619
25.221	331.077	26.333
25.229	331.227	26.044
25.238	331.378	25.750
25.246	331.532	25.455
25.254	331.684	25.157
25.263	331.836	24.855
25.271	331.983	24.550
25.279	332.136	24.243
25.288	332.288	23.934
25.296	332.436	23.623
25.304	332.583	23.309
25.313	332.737	22.993
25.321	332.888	22.676
25.329	333.039	22.357
25.338	333.189	22.037
25.346	333.340	21.715
25.354	333.490	21.393
25.363	333.639	21.070
25.371	333.788	20.745
25.379	333.939	20.421
25.388	334.089	20.096
25.396	334.242	19.772
25.404	334.389	19.448
25.413	334.541	19.124
25.421	334.692	18.800
25.429	334.841	18.476
25.438	334.990	18.153
25.446	335.135	17.832
25.454	335.291	17.512
25.463	335.440	17.192
25.471	335.593	16.873
25.479	335.745	16.556
25.488	335.896	16.240
25.496	336.043	15.925
25.504	336.197	15.612
25.513	336.347	15.301
25.521	336.497	14.992
25.529	336.648	14.683
25.538	336.801	14.377
25.546	336.951	14.073
25.554	337.102	13.770
25.563	337.259	13.470
25.571	337.409	13.172
25.579	337.558	12.876
25.588	337.710	12.582
25.596	337.863	12.290
25.604	338.014	12.002
25.613	338.166	11.715
25.621	338.320	11.431
25.629	338.473	11.150
25.638	338.627	10.871
25.646	338.779	10.596
25.654	338.931	10.322
25.663	339.086	10.052
25.671	339.238	9.785
25.679	339.395	9.520
25.688	339.549	9.257
25.696	339.701	8.997
25.704	339.855	8.740
25.713	340.004	8.485
25.721	340.162	8.233
25.729	340.317	7.983
25.738	340.470	7.736
25.746	340.626	7.491
25.754	340.781	7.248
25.763	340.936	7.007
25.771	341.094	6.769
25.779	341.247	6.532
25.788	341.397	6.298
25.796	341.555	6.066
25.804	341.712	5.836
25.813	341.870	5.610
25.821	342.021	5.385
25.829	342.181	5.164
25.838	342.334	4.944
25.846	342.490	4.727
25.854	342.648	4.512
25.863	342.803	4.300
25.871	342.960	4.091
25.879	343.117	3.883
25.888	343.274	3.678
25.896	343.429	3.475
25.904	343.584	3.274
25.913	343.743	3.076
25.921	343.899	2.880
25.929	344.056	2.686
25.938	344.212	2.495
25.946	344.372	2.306
25.954	344.528	2.119
25.963	344.688	1.935
25.971	344.848	1.752
25.979	345.002	1.572
25.988	345.162	1.394
25.996	345.322	1.218
26.004	345.481	1.044
26.013	345.636	0.872
26.021	345.793	0.701
26.029	345.955	0.533
26.038	346.114	0.366
26.046	346.270	0.202
26.054	346.431	0.039
26.063	346.591	-0.122
26.071	346.751	-0.281
26.079	346.909	-0.438
26.088	347.068	-0.593
26.096	347.225	-0.746
26.104	347.386	-0.897
26.113	347.544	-1.046
26.121	347.709	-1.194
26.129	347.864	-1.339
26.138	348.024	-1.483
26.146	348.188	-1.626
26.154	348.347	-1.766
26.163	348.509	-1.905
26.171	348.668	-2.042
26.179	348.831	-2.177
26.188	348.986	-2.310
26.196	349.150	-2.441
26.204	349.311	-2.571
26.213	349.475	-2.699
26.221	349.632	-2.826
26.229	349.792	-2.950
26.238	349.953	-3.073
26.246	350.115	-3.194
26.254	350.278	-3.314
26.263	350.440	-3.432
26.271	350.603	-3.549
26.279	350.762	-3.665
26.288	350.924	-3.779
26.296	351.087	-3.890
26.304	351.250	-4.001
26.313	351.408	-4.110
26.321	351.575	-4.220
26.329	351.737	-4.327
26.338	351.898	-4.433
26.346	352.059	-4.538
26.354	352.223	-4.640
26.363	352.388	-4.741
26.371	352.547	-4.841
26.379	352.713	-4.941
26.388	352.872	-5.038
26.396	353.037	-5.134
26.404	353.200	-5.228
26.413	353.364	-5.322
26.421	353.530	-5.414
26.429	353.691	-5.504
26.438	353.848	-5.593
26.446	354.016	-5.683
26.454	354.180	-5.771
26.463	354.340	-5.857
26.471	354.501	-5.942
26.479	354.668	-6.026
26.488	354.828	-6.109
26.496	354.992	-6.191
26.504	355.158	-6.271
26.513	355.324	-6.350
26.521	355.487	-6.428
26.529	355.650	-6.505
26.538	355.813	-6.581
26.546	355.977	-6.656
26.554	356.145	-6.730
26.563	356.308	-6.803
26.571	356.469	-6.875
26.579	356.638	-6.947
26.588	356.802	-7.017
26.596	356.967	-7.087
26.604	357.130	-7.154
26.613	357.289	-7.221
26.621	357.455	-7.288
26.629	357.625	-7.353
26.638	357.788	-7.417
26.646	357.949	-7.481
26.654	358.113	-7.544
26.663	358.285	-7.606
26.671	358.447	-7.667
26.679	358.616	-7.727
26.688	358.781	-7.787
26.696	358.945	-7.846
26.704	359.107	-7.904
26.713	359.271	-7.961
26.721	359.437	-8.017
26.729	359.602	-8.072
26.738	359.771	-8.126
26.746	359.936	-8.180
26.754	360.101	-8.234
26.763	360.269	-8.286
26.771	360.431	-8.337
26.779	360.595	-8.387
26.788	360.761	-8.437
26.796	360.928	-8.486
26.804	361.092	-8.535
26.813	361.259	-8.582
26.821	361.423	-8.628
26.829	361.589	-8.675
26.838	361.758	-8.720
26.846	361.922	-8.765
26.854	362.088	-8.810
26.863	362.259	-8.855
26.871	362.416	-8.899
26.879	362.585	-8.942
26.888	362.752	-8.985
26.896	362.917	-9.028
26.904	363.081	-9.070
26.913	363.249	-9.111
26.921	363.410	-9.152
26.929	363.579	-9.192
26.938	363.744	-9.232
26.946	363.910	-9.271
26.954	364.075	-9.310
26.963	364.244	-9.347
26.971	364.406	-9.384
26.979	364.574	-9.421
26.988	364.740	-9.458
26.996	364.907	-9.494
27.004	365.075	-9.530
27.013	365.240	-9.566
27.021	365.404	-9.600
27.029	365.576	-9.635
27.038	365.735	-9.669
27.046	365.906	-9.703
27.054	366.073	-9.736
27.063	366.239	-9.769
27.071	366.407	-9.802
27.079	366.573	-9.834
27.088	366.740	-9.867
27.096	366.905	-9.899
27.104	367.072	-9.930
27.113	367.234	-9.961
27.121	367.402	-9.992
27.129	367.563	-10.022
27.138	367.735	-10.053
27.146	367.899	-10.082
27.154	368.065	-10.112
27.163	368.234	-10.141
27.171	368.399	-10.169
27.179	368.571	-10.198
27.188	368.735	-10.227
27.196	368.898	-10.256
27.204	369.065	-10.285
27.213	369.233	-10.314
27.221	369.398	-10.342
27.229	369.565	-10.370
27.238	369.728	-10.398
27.246	369.892	-10.426
27.254	370.059	-10.454
27.263	370.231	-10.482
27.271	370.400	-10.509
27.279	370.567	-10.536
27.288	370.733	-10.562
27.296	370.900	-10.588
27.304	371.065	-10.615
27.313	371.233	-10.642
27.321	371.395	-10.669
27.329	371.564	-10.696
27.338	371.727	-10.722
27.346	371.894	-10.749
27.354	372.063	-10.775
27.363	372.230	-10.802
27.371	372.393	-10.829
27.379	372.562	-10.854
27.388	372.729	-10.879
27.396	372.897	-10.905
27.404	373.057	-10.931
27.413	373.227	-10.957
27.421	373.391	-10.982
27.429	373.561	-11.008
27.438	373.722	-11.034
27.446	373.890	-11.061
27.454	374.057	-11.086
27.463	374.223	-11.112
27.471	374.386	-11.137
27.479	374.557	-11.163
27.488	374.721	-11.188
27.496	374.891	-11.214
27.504	375.053	-11.240
27.513	375.221	-11.265
27.521	375.387	-11.290
27.529	375.551	-11.314
27.538	375.718	-11.339
27.546	375.888	-11.364
27.554	376.054	-11.388
27.563	376.225	-11.413
27.571	376.387	-11.438
27.579	376.551	-11.463
27.588	376.717	-11.488
27.596	376.884	-11.512
27.604	377.049	-11.537
27.613	377.214	-11.562
27.621	377.384	-11.588
27.629	377.547	-11.613
27.638	377.713	-11.639
27.646	377.883	-11.664
27.654	378.050	-11.688
27.663	378.217	-11.712
27.671	378.381	-11.737
27.679	378.545	-11.763
27.688	378.711	-11.788
27.696	378.882	-11.812
27.704	379.043	-11.837
27.713	379.212	-11.862
27.721	379.378	-11.887
27.729	379.543	-11.911
27.738	379.708	-11.936
27.746	379.872	-11.960
27.754	380.041	-11.984
27.763	380.208	-12.008
27.771	380.377	-12.032
27.779	380.539	-12.056
27.788	380.707	-12.081
27.796	380.874	-12.104
27.804	381.040	-12.128
27.813	381.208	-12.152
27.821	381.376	-12.176
27.829	381.539	-12.200
27.838	381.704	-12.224
27.846	381.870	-12.248
27.854	382.039	-12.272
27.863	382.204	-12.295
27.871	382.372	-12.318
27.879	382.537	-12.341
27.888	382.703	-12.365
27.896	382.874	-12.388
27.904	383.037	-12.411
27.913	383.203	-12.433
27.921	383.368	-12.454
27.929	383.537	-12.477
27.938	383.702	-12.500
27.946	383.870	-12.523
27.954	384.037	-12.546
27.963	384.202	-12.568
27.971	384.368	-12.591
27.979	384.536	-12.614
27.988	384.702	-12.637
27.996	384.864	-12.660
28.004	385.032	-12.683
28.013	385.199	-12.705
28.021	385.369	-12.728
28.029	385.538	-12.750
28.038	385.701	-12.771
28.046	385.865	-12.794
28.054	386.034	-12.815
28.063	386.202	-12.837
28.071	386.369	-12.858
28.079	386.532	-12.881
28.088	386.698	-12.903
28.096	386.866	-12.925
28.104	387.029	-12.947
28.113	387.194	-12.969
28.121	387.365	-12.991
28.129	387.530	-13.012
28.138	387.694	-13.034
28.146	387.860	-13.057
28.154	388.027	-13.078
28.163	388.194	-13.100
28.171	388.364	-13.121
28.179	388.532	-13.142
28.188	388.694	-13.164
28.196	388.858	-13.186
28.204	389.028	-13.207
28.213	389.193	-13.228
28.221	389.357	-13.249
28.229	389.529	-13.270
28.238	389.690	-13.291
28.246	389.858	-13.312
28.254	390.024	-13.332
28.263	390.190	-13.352
28.271	390.356	-13.372
28.279	390.524	-13.393
28.288	390.691	-13.413
28.296	390.857	-13.434
28.304	391.025	-13.455
28.313	391.189	-13.475
28.321	391.354	-13.495
28.329	391.525	-13.517
28.338	391.690	-13.538
28.346	391.857	-13.558
28.354	392.022	-13.579
28.363	392.189	-13.599
28.371	392.356	-13.620
28.379	392.521	-13.640
28.388	392.689	-13.661
28.396	392.853	-13.681
28.404	393.021	-13.701
28.413	393.185	-13.721
28.421	393.352	-13.741
28.429	393.516	-13.761
28.438	393.684	-13.780
28.446	393.851	-13.799
28.454	394.015	-13.818
28.463	394.182	-13.838
28.471	394.353	-13.857
28.479	394.520	-13.876
28.488	394.684	-13.896
28.496	394.853	-13.917
28.504	395.015	-13.936
28.513	395.186	-13.956
28.521	395.353	-13.976
28.529	395.518	-13.996
28.538	395.684	-14.017
28.546	395.852	-14.037
28.554	396.017	-14.057
28.563	396.182	-14.077
28.571	396.350	-14.097
28.579	396.512	-14.116
28.588	396.679	-14.136
28.596	396.846	-14.156
28.604	397.011	-14.176
28.613	397.177	-14.197
28.621	397.346	-14.217
28.629	397.512	-14.237
28.638	397.680	-14.257
28.646	397.846	-14.278
28.654	398.015	-14.299
28.663	398.178	-14.318
28.671	398.340	-14.339
28.679	398.512	-14.360
28.688	398.676	-14.380
28.696	398.842	-14.400
28.704	399.008	-14.421
28.713	399.179	-14.442
28.721	399.341	-14.463
28.729	399.508	-14.484
28.738	399.674	-14.505
28.746	399.839	-14.526
28.754	400.007	-14.547
28.763	400.173	-14.569
28.771	400.341	-14.591
28.779	400.504	-14.613
28.788	400.670	-14.635
28.796	400.833	-14.657
28.804	401.004	-14.679
28.813	401.172	-14.701
28.821	401.338	-14.722
28.829	401.504	-14.745
28.838	401.668	-14.768
28.846	401.834	-14.790
28.854	402.000	-14.811
28.863	402.167	-14.834
28.871	402.333	-14.856
28.879	402.501	-14.878
28.888	402.666	-14.901
28.896	402.836	-14.924
28.904	402.996	-14.947
28.913	403.166	-14.970
28.921	403.329	-14.992
28.929	403.491	-15.015
28.938	403.663	-15.038
28.946	403.832	-15.060
28.954	403.994	-15.083
28.963	404.161	-15.106
28.971	404.326	-15.129
28.979	404.493	-15.151
28.988	404.661	-15.174
28.996	404.828	-15.198
29.004	404.993	-15.221
29.013	405.158	-15.245
29.021	405.325	-15.269
29.029	405.493	-15.294
29.038	405.657	-15.318
29.046	405.824	-15.341
29.054	405.990	-15.365
29.063	406.154	-15.389
29.071	406.325	-15.413
29.079	406.491	-15.437
29.088	406.657	-15.460
29.096	406.822	-15.484
29.104	406.988	-15.507
29.113	407.154	-15.531
29.121	407.319	-15.555
29.129	407.488	-15.579
29.138	407.653	-15.603
29.146	407.817	-15.627
29.154	407.989	-15.652
29.163	408.154	-15.676
29.171	408.318	-15.700
29.179	408.485	-15.725
29.188	408.652	-15.750
29.196	408.818	-15.776
29.204	408.986	-15.801
29.213	409.152	-15.826
29.221	409.316	-15.852
29.229	409.483	-15.877
29.238	409.649	-15.903
29.246	409.815	-15.929
29.254	409.979	-15.954
29.263	410.149	-15.980
29.271	410.313	-16.005
29.279	410.480	-16.030
29.288	410.646	-16.056
29.296	410.812	-16.082
29.304	410.979	-16.108
29.313	411.145	-16.134
29.321	411.311	-16.161
29.329	411.476	-16.187
29.338	411.647	-16.214
29.346	411.811	-16.241
29.354	411.980	-16.269
29.363	412.144	-16.295
29.371	412.310	-16.322
29.379	412.475	-16.349
29.388	412.641	-16.376
29.396	412.812	-16.403
29.404	412.974	-16.430
29.413	413.139	-16.458
29.421	413.304	-16.484
29.429	413.474	-16.511
29.438	413.638	-16.538
29.446	413.803	-16.565
29.454	413.970	-16.593
29.463	414.137	-16.620
29.471	414.304	-16.647
29.479	414.468	-16.675
29.488	414.637	-16.703
29.496	414.805	-16.730
29.504	414.969	-16.759
29.513	415.136	-16.787
29.521	415.303	-16.816
29.529	415.468	-16.844
29.538	415.634	-16.872
29.546	415.798	-16.901
29.554	415.964	-16.929
29.563	416.133	-16.958
29.571	416.295	-16.985
29.579	416.466	-17.014
29.588	416.629	-17.043
29.596	416.796	-17.071
29.604	416.964	-17.099
29.613	417.127	-17.128
29.621	417.296	-17.157
29.629	417.461	-17.185
29.638	417.625	-17.213
29.646	417.794	-17.242
29.654	417.960	-17.271
29.663	418.121	-17.299
29.671	418.289	-17.328
29.679	418.460	-17.357
29.688	418.621	-17.385
29.696	418.791	-17.414
29.704	418.955	-17.442
29.713	419.119	-17.471
29.721	419.285	-17.500
29.729	419.448	-17.529
29.738	419.619	-17.557
29.746	419.788	-17.586
29.754	419.953	-17.614
29.763	420.116	-17.642
29.771	420.278	-17.670
29.779	420.449	-17.699
29.788	420.616	-17.726
29.796	420.782	-17.754
29.804	420.946	-17.781
29.813	421.115	-17.808
29.821	421.281	-17.836
29.829	421.447	-17.865
29.838	421.615	-17.893
29.846	421.776	-17.920
29.854	421.943	-17.948
29.863	422.115	-17.976
29.871	422.277	-18.003
29.879	422.439	-18.031
29.888	422.607	-18.060
29.896	422.773	-18.088
29.904	422.938	-18.115
29.913	423.106	-18.143
29.921	423.270	-18.169
29.929	423.435	-18.197
29.938	423.604	-18.224
29.946	423.768	-18.251
29.954	423.933	-18.279
29.963	424.100	-18.306
29.971	424.267	-18.333
29.979	424.435	-18.359
29.988	424.603	-18.385
29.996	424.766	-18.412
30.004	424.932	-18.438
30.013	425.096	-18.464
30.021	425.261	-18.490
30.029	425.429	-18.516
30.038	425.595	-18.541
30.046	425.759	-18.566
30.054	425.928	-18.592
30.063	426.095	-18.617
30.071	426.258	-18.642
30.079	426.425	-18.667
30.088	426.593	-18.691
30.096	426.755	-18.715
30.104	426.927	-18.739
30.113	427.090	-18.762
30.121	427.251	-18.786
30.129	427.421	-18.810
30.138	427.590	-18.832
30.146	427.757	-18.856
30.154	427.923	-18.880
30.163	428.089	-18.903
30.171	428.254	-18.927
30.179	428.419	-18.950
30.188	428.588	-18.973
30.196	428.755	-18.996
30.204	428.918	-19.018
30.213	429.087	-19.041
30.221	429.251	-19.064
30.229	429.418	-19.085
30.238	429.582	-19.107
30.246	429.750	-19.128
30.254	429.917	-19.148
30.263	430.083	-19.168
30.271	430.252	-19.188
30.279	430.417	-19.208
30.288	430.582	-19.228
30.296	430.751	-19.247
30.304	430.916	-19.265
30.313	431.083	-19.284
30.321	431.248	-19.302
30.329	431.417	-19.320
30.338	431.582	-19.338
30.346	431.750	-19.356
30.354	431.914	-19.374
30.363	432.082	-19.392
30.371	432.248	-19.409
30.379	432.416	-19.427
30.388	432.582	-19.444
30.396	432.753	-19.461
30.404	432.919	-19.478
30.413	433.085	-19.496
30.421	433.248	-19.513
30.429	433.416	-19.530
30.438	433.585	-19.547
30.446	433.747	-19.562
30.454	433.912	-19.579
30.463	434.082	-19.595
30.471	434.240	-19.610
30.479	434.418	-19.626
30.488	434.586	-19.641
30.496	434.749	-19.656
30.504	434.916	-19.670
30.513	435.083	-19.685
30.521	435.251	-19.700
30.529	435.417	-19.715
30.538	435.584	-19.730
30.546	435.756	-19.745
30.554	435.919	-19.761
30.563	436.088	-19.775
30.571	436.249	-19.790
30.579	436.419	-19.805
30.588	436.585	-19.819
30.596	436.754	-19.833
30.604	436.920	-19.848
30.613	437.089	-19.861
30.621	437.255	-19.875
30.629	437.422	-19.889
30.638	437.585	-19.902
30.646	437.752	-19.916
30.654	437.920	-19.929
30.663	438.086	-19.942
30.671	438.253	-19.955
30.679	438.424	-19.969
30.688	438.591	-19.982
30.696	438.758	-19.996
30.704	438.926	-20.008
30.713	439.092	-20.021
30.721	439.255	-20.035
30.729	439.423	-20.049
30.738	439.592	-20.063
30.746	439.756	-20.077
30.754	439.921	-20.091
30.763	440.089	-20.105
30.771	440.257	-20.118
30.779	440.420	-20.132
30.788	440.588	-20.145
30.796	440.755	-20.159
30.804	440.921	-20.172
30.813	441.091	-20.185
30.821	441.255	-20.198
30.829	441.426	-20.212
30.838	441.588	-20.225
30.846	441.756	-20.239
30.854	441.928	-20.254
30.863	442.099	-20.269
30.871	442.255	-20.283
30.879	442.428	-20.299
30.888	442.591	-20.313
30.896	442.759	-20.327
30.904	442.926	-20.342
30.913	443.091	-20.357
30.921	443.262	-20.371
30.929	443.425	-20.387
30.938	443.593	-20.402
30.946	443.760	-20.418
30.954	443.927	-20.433
30.963	444.092	-20.449
30.971	444.259	-20.466
30.979	444.426	-20.482
30.988	444.593	-20.499
30.996	444.758	-20.516
31.004	444.923	-20.533
31.013	445.091	-20.550
31.021	445.258	-20.567
31.029	445.425	-20.584
31.038	445.589	-20.602
31.046	445.755	-20.620
31.054	445.923	-20.638
31.063	446.090	-20.656
31.071	446.255	-20.674
31.079	446.421	-20.694
31.088	446.591	-20.714
31.096	446.756	-20.735
31.104	446.924	-20.756
31.113	447.090	-20.778
31.121	447.261	-20.799
31.129	447.423	-20.821
31.138	447.587	-20.843
31.146	447.755	-20.866
31.154	447.923	-20.888
31.163	448.088	-20.911
31.171	448.255	-20.934
31.179	448.423	-20.956
31.188	448.587	-20.979
31.196	448.752	-21.001
31.204	448.918	-21.024
31.213	449.088	-21.046
31.221	449.252	-21.069
31.229	449.423	-21.093
31.238	449.585	-21.117
31.246	449.750	-21.142
31.254	449.916	-21.166
31.263	450.089	-21.192
31.271	450.253	-21.217
31.279	450.419	-21.241
31.288	450.583	-21.267
31.296	450.750	-21.294
31.304	450.913	-21.320
31.313	451.083	-21.346
31.321	451.251	-21.372
31.329	451.416	-21.398
31.338	451.581	-21.424
31.346	451.749	-21.451
31.354	451.909	-21.479
31.363	452.083	-21.506
31.371	452.248	-21.533
31.379	452.417	-21.561
31.388	452.575	-21.590
31.396	452.744	-21.620
31.404	452.909	-21.649
31.413	453.076	-21.679
31.421	453.242	-21.708
31.429	453.410	-21.738
31.438	453.575	-21.769
31.446	453.741	-21.801
31.454	453.908	-21.833
31.463	454.073	-21.865
31.471	454.240	-21.896
31.479	454.402	-21.927
31.488	454.569	-21.958
31.496	454.735	-21.990
31.504	454.905	-22.023
31.513	455.067	-22.055
31.521	455.236	-22.089
31.529	455.400	-22.123
31.538	455.568	-22.159
31.546	455.728	-22.194
31.554	455.898	-22.231
31.563	456.069	-22.269
31.571	456.228	-22.307
31.579	456.395	-22.346
31.588	456.566	-22.385
31.596	456.726	-22.424
31.604	456.893	-22.464
31.613	457.059	-22.502
31.621	457.226	-22.541
31.629	457.392	-22.580
31.638	457.559	-22.621
31.646	457.722	-22.663
31.654	457.888	-22.704
31.663	458.054	-22.745
31.671	458.215	-22.788
31.679	458.382	-22.831
31.688	458.550	-22.873
31.696	458.717	-22.916
31.704	458.877	-22.959
31.713	459.047	-23.002
31.721	459.209	-23.044
31.729	459.374	-23.087
31.738	459.538	-23.129
31.746	459.708	-23.173
31.754	459.868	-23.216
31.763	460.036	-23.261
31.771	460.202	-23.307
31.779	460.368	-23.354
31.788	460.530	-23.401
31.796	460.695	-23.449
31.804	460.859	-23.497
31.813	461.023	-23.545
31.821	461.192	-23.595
31.829	461.357	-23.643
31.838	461.521	-23.692
31.846	461.685	-23.741
31.854	461.856	-23.790
31.863	462.019	-23.838
31.871	462.183	-23.886
31.879	462.347	-23.934
31.888	462.514	-23.983
31.896	462.678	-24.030
31.904	462.846	-24.079
31.913	463.007	-24.128
31.921	463.174	-24.177
31.929	463.340	-24.225
31.938	463.509	-24.275
31.946	463.675	-24.324
31.954	463.842	-24.374
31.963	464.005	-24.424
31.971	464.173	-24.474
31.979	464.336	-24.525
31.988	464.500	-24.575
31.996	464.668	-24.626
32.004	464.832	-24.677
32.013	464.998	-24.729
32.021	465.161	-24.779
32.029	465.327	-24.830
32.038	465.497	-24.881
32.046	465.662	-24.931
32.054	465.813	-24.981
32.063	465.988	-25.032
32.071	466.157	-25.082
32.079	466.323	-25.131
32.088	466.486	-25.181
32.096	466.656	-25.231
32.104	466.818	-25.281
32.113	466.979	-25.332
32.121	467.143	-25.383
32.129	467.309	-25.434
32.138	467.476	-25.483
32.146	467.640	-25.532
32.154	467.804	-25.582
32.163	467.968	-25.632
32.171	468.136	-25.682
32.179	468.299	-25.730
32.188	468.462	-25.779
32.196	468.630	-25.828
32.204	468.795	-25.876
32.213	468.962	-25.926
32.221	469.128	-25.978
32.229	469.294	-26.030
32.238	469.456	-26.082
32.246	469.621	-26.133
32.254	469.788	-26.185
32.263	469.954	-26.238
32.271	470.117	-26.289
32.279	470.285	-26.341
32.288	470.446	-26.392
32.296	470.613	-26.444
32.304	470.782	-26.494
32.313	470.946	-26.544
32.321	471.113	-26.594
32.329	471.276	-26.644
32.338	471.442	-26.694
32.346	471.608	-26.743
32.354	471.775	-26.792
32.363	471.940	-26.840
32.371	472.104	-26.887
32.379	472.269	-26.933
32.388	472.436	-26.979
32.396	472.597	-27.024
32.404	472.766	-27.069
32.413	472.931	-27.112
32.421	473.096	-27.154
32.429	473.265	-27.197
32.438	473.428	-27.238
32.446	473.592	-27.279
32.454	473.759	-27.319
32.463	473.925	-27.358
32.471	474.089	-27.396
32.479	474.259	-27.434
32.488	474.423	-27.472
32.496	474.586	-27.509
32.504	474.754	-27.546
32.513	474.918	-27.584
32.521	475.089	-27.621
32.529	475.251	-27.657
32.538	475.416	-27.693
32.546	475.582	-27.728
32.554	475.749	-27.764
32.563	475.916	-27.798
32.571	476.080	-27.831
32.579	476.251	-27.863
32.588	476.416	-27.896
32.596	476.583	-27.928
32.604	476.750	-27.959
32.613	476.914	-27.990
32.621	477.079	-28.021
32.629	477.243	-28.051
32.638	477.414	-28.082
32.646	477.581	-28.112
32.654	477.746	-28.143
32.663	477.911	-28.173
32.671	478.079	-28.203
32.679	478.243	-28.231
32.688	478.408	-28.260
32.696	478.579	-28.288
32.704	478.746	-28.316
32.713	478.914	-28.345
32.721	479.075	-28.376
32.729	479.244	-28.408
32.738	479.403	-28.440
32.746	479.573	-28.472
32.754	479.738	-28.504
32.763	479.907	-28.537
32.771	480.077	-28.570
32.779	480.240	-28.605
32.788	480.408	-28.640
32.796	480.569	-28.674
32.804	480.735	-28.707
32.813	480.904	-28.738
32.821	481.065	-28.768
32.829	481.236	-28.799
32.838	481.402	-28.830
32.846	481.568	-28.860
32.854	481.730	-28.891
32.863	481.905	-28.921
32.871	482.071	-28.949
32.879	482.231	-28.979
32.888	482.400	-29.008
32.896	482.566	-29.037
32.904	482.730	-29.065
32.913	482.895	-29.093
32.921	483.067	-29.121
32.929	483.231	-29.148
32.938	483.397	-29.175
32.946	483.565	-29.201
32.954	483.726	-29.227
32.963	483.893	-29.253
32.971	484.062	-29.278
32.979	484.228	-29.303
32.988	484.395	-29.328
32.996	484.562	-29.354
33.004	484.725	-29.380
33.013	484.892	-29.406
33.021	485.057	-29.430
33.029	485.226	-29.456
33.038	485.387	-29.481
33.046	485.559	-29.505
33.054	485.726	-29.530
33.063	485.894	-29.555
33.071	486.058	-29.580
33.079	486.223	-29.604
33.088	486.388	-29.628
33.096	486.557	-29.652
33.104	486.722	-29.676
33.113	486.892	-29.700
33.121	487.056	-29.725
33.129	487.221	-29.749
33.138	487.387	-29.774
33.146	487.556	-29.797
33.154	487.721	-29.820
33.163	487.886	-29.844
33.171	488.052	-29.868
33.179	488.213	-29.892
33.188	488.389	-29.916
33.196	488.552	-29.940
33.204	488.717	-29.964
33.213	488.886	-29.987
33.221	489.048	-30.010
33.229	489.218	-30.034
33.238	489.383	-30.058
33.246	489.551	-30.082
33.254	489.715	-30.106
33.263	489.879	-30.129
33.271	490.045	-30.153
33.279	490.211	-30.178
33.288	490.377	-30.201
33.296	490.546	-30.225
33.304	490.713	-30.250
33.313	490.878	-30.273
33.321	491.040	-30.297
33.329	491.206	-30.321
33.338	491.375	-30.345
33.346	491.545	-30.369
33.354	491.707	-30.392
33.363	491.873	-30.416
33.371	492.040	-30.440
33.379	492.204	-30.464
33.388	492.371	-30.488
33.396	492.541	-30.512
33.404	492.706	-30.536
33.413	492.874	-30.560
33.421	493.037	-30.585
33.429	493.204	-30.610
33.438	493.370	-30.634
33.446	493.537	-30.658
33.454	493.702	-30.681
33.463	493.871	-30.706
33.471	494.036	-30.730
33.479	494.201	-30.754
33.488	494.368	-30.778
33.496	494.531	-30.802
33.504	494.700	-30.827
33.513	494.868	-30.851
33.521	495.033	-30.875
33.529	495.198	-30.900
33.538	495.365	-30.925
33.546	495.532	-30.950
33.554	495.696	-30.975
33.563	495.866	-31.000
33.571	496.028	-31.024
33.579	496.195	-31.049
33.588	496.360	-31.074
33.596	496.527	-31.099
33.604	496.688	-31.123
33.613	496.856	-31.148
33.621	497.021	-31.172
33.629	497.186	-31.197
33.638	497.356	-31.223
33.646	497.522	-31.248
33.654	497.689	-31.274
33.663	497.859	-31.300
33.671	498.022	-31.326
33.679	498.185	-31.353
33.688	498.352	-31.379
33.696	498.519	-31.405
33.704	498.684	-31.431
33.713	498.853	-31.457
33.721	499.018	-31.484
33.729	499.184	-31.511
33.738	499.350	-31.538
33.746	499.518	-31.566
33.754	499.684	-31.593
33.763	499.847	-31.619
33.771	500.015	-31.647
33.779	500.180	-31.674
33.788	500.348	-31.703
33.796	500.513	-31.731
33.804	500.680	-31.759
33.813	500.846	-31.787
33.821	501.012	-31.816
33.829	501.176	-31.844
33.838	501.345	-31.873
33.846	501.512	-31.903
33.854	501.677	-31.933
33.863	501.844	-31.963
33.871	502.010	-31.993
33.879	502.177	-32.024
33.888	502.342	-32.054
33.896	502.510	-32.084
33.904	502.673	-32.114
33.913	502.840	-32.144
33.921	503.009	-32.174
33.929	503.172	-32.204
33.938	503.340	-32.234
33.946	503.504	-32.265
33.954	503.673	-32.296
33.963	503.838	-32.326
33.971	504.002	-32.357
33.979	504.171	-32.388
33.988	504.340	-32.420
33.996	504.500	-32.451
34.004	504.670	-32.484
34.013	504.838	-32.516
34.021	505.003	-32.547
34.029	505.167	-32.578
34.038	505.334	-32.611
34.046	505.502	-32.643
34.054	505.668	-32.675
34.063	505.830	-32.707
34.071	505.997	-32.740
34.079	506.164	-32.773
34.088	506.333	-32.806
34.096	506.460	-32.836
34.104	506.634	-32.870
34.113	506.796	-32.899
34.121	506.961	-32.927
34.129	507.128	-32.955
34.138	507.297	-32.984
34.146	507.466	-33.013
34.154	507.632	-33.042
34.163	507.797	-33.071
34.171	507.965	-33.099
34.179	508.132	-33.128
34.188	508.298	-33.157
34.196	508.462	-33.188
34.204	508.630	-33.222
34.213	508.798	-33.254
34.221	508.960	-33.286
34.229	509.127	-33.318
34.238	509.298	-33.349
34.246	509.464	-33.380
34.254	509.628	-33.412
34.263	509.795	-33.444
34.271	509.966	-33.475
34.279	510.129	-33.507
34.288	510.295	-33.539
34.296	510.458	-33.571
34.304	510.628	-33.603
34.313	510.798	-33.636
34.321	510.962	-33.669
34.329	511.126	-33.702
34.338	511.297	-33.736
34.346	511.463	-33.769
34.354	511.629	-33.803
34.363	511.812	-33.839
34.371	511.998	-33.874
34.379	512.160	-33.909
34.388	512.329	-33.948
34.396	512.496	-33.988
34.404	512.660	-34.028
34.413	512.826	-34.067
34.421	512.988	-34.106
34.429	513.159	-34.146
34.438	513.325	-34.185
34.446	513.489	-34.225
34.454	513.657	-34.266
34.463	513.821	-34.306
34.471	513.988	-34.343
34.479	514.154	-34.381
34.488	514.325	-34.419
34.496	514.486	-34.457
34.504	514.654	-34.497
34.513	514.817	-34.536
34.521	514.983	-34.577
34.529	515.147	-34.616
34.538	515.315	-34.656
34.546	515.478	-34.694
34.554	515.649	-34.734
34.563	515.811	-34.774
34.571	515.978	-34.814
34.579	516.143	-34.854
34.588	516.306	-34.893
34.596	516.476	-34.933
34.604	516.641	-34.972
34.613	516.802	-35.013
34.621	516.970	-35.053
34.629	517.138	-35.094
34.638	517.300	-35.133
34.646	517.468	-35.173
34.654	517.629	-35.212
34.663	517.797	-35.253
34.671	517.959	-35.292
34.679	518.131	-35.332
34.688	518.294	-35.372
34.696	518.460	-35.411
34.704	518.626	-35.451
34.713	518.792	-35.492
34.721	518.957	-35.532
34.729	519.122	-35.572
34.738	519.287	-35.612
34.746	519.457	-35.653
34.754	519.621	-35.693
34.763	519.789	-35.734
34.771	519.951	-35.774
34.779	520.116	-35.815
34.788	520.284	-35.855
34.796	520.449	-35.895
34.804	520.615	-35.936
34.813	520.776	-35.976
34.821	520.941	-36.017
34.829	521.105	-36.058
34.838	521.272	-36.098
34.846	521.441	-36.137
34.854	521.603	-36.177
34.863	521.769	-36.217
34.871	521.933	-36.257
34.879	522.098	-36.297
34.888	522.264	-36.336
34.896	522.432	-36.375
34.904	522.596	-36.414
34.913	522.758	-36.453
34.921	522.926	-36.493
34.929	523.094	-36.534
34.938	523.254	-36.574
34.946	523.421	-36.615
34.954	523.587	-36.655
34.963	523.755	-36.695
34.971	523.917	-36.736
34.979	524.087	-36.778
34.988	524.251	-36.818
34.996	524.416	-36.859
35.004	524.580	-36.899
35.013	524.747	-36.940
35.021	524.914	-36.981
35.029	525.080	-37.021
35.038	525.243	-37.062
35.046	525.411	-37.103
35.054	525.574	-37.144
35.063	525.740	-37.184
35.071	525.905	-37.225
35.079	526.075	-37.266
35.088	526.239	-37.307
35.096	526.408	-37.348
35.104	526.572	-37.388
35.113	526.738	-37.429
35.121	526.903	-37.470
35.129	527.069	-37.511
35.138	527.234	-37.552
35.146	527.401	-37.592
35.154	527.564	-37.633
35.163	527.732	-37.675
35.171	527.896	-37.716
35.179	528.060	-37.757
35.188	528.224	-37.798
35.196	528.388	-37.838
35.204	528.552	-37.878
35.213	528.718	-37.919
35.221	528.885	-37.960
35.229	529.048	-37.999
35.238	529.213	-38.039
35.246	529.381	-38.079
35.254	529.547	-38.119
35.263	529.711	-38.159
35.271	529.879	-38.200
35.279	530.040	-38.240
35.288	530.212	-38.282
35.296	530.374	-38.323
35.304	530.543	-38.365
35.313	530.709	-38.407
35.321	530.875	-38.448
35.329	531.038	-38.489
35.338	531.203	-38.531
35.346	531.368	-38.574
35.354	531.539	-38.615
35.363	531.700	-38.656
35.371	531.866	-38.698
35.379	532.029	-38.740
35.388	532.190	-38.781
35.396	532.358	-38.823
35.404	532.528	-38.864
35.413	532.691	-38.905
35.421	532.860	-38.947
35.429	533.023	-38.988
35.438	533.187	-39.030
35.446	533.351	-39.072
35.454	533.521	-39.114
35.463	533.685	-39.155
35.471	533.853	-39.197
35.479	534.016	-39.240
35.488	534.181	-39.283
35.496	534.349	-39.326
35.504	534.508	-39.368
35.513	534.677	-39.412
35.521	534.842	-39.455
35.529	535.009	-39.497
35.538	535.175	-39.540
35.546	535.342	-39.584
35.554	535.503	-39.627
35.563	535.668	-39.671
35.571	535.835	-39.715
35.579	536.001	-39.758
35.588	536.168	-39.801
35.596	536.333	-39.845
35.604	536.500	-39.889
35.613	536.667	-39.933
35.621	536.833	-39.977
35.629	536.995	-40.022
35.638	537.165	-40.066
35.646	537.329	-40.110
35.654	537.482	-40.153
35.663	537.659	-40.199
35.671	537.825	-40.243
35.679	537.990	-40.287
35.688	538.155	-40.332
35.696	538.321	-40.377
35.704	538.487	-40.422
35.713	538.654	-40.468
35.721	538.817	-40.513
35.729	538.984	-40.560
35.738	539.146	-40.606
35.746	539.315	-40.652
35.754	539.480	-40.700
35.763	539.643	-40.748
35.771	539.808	-40.794
35.779	539.973	-40.841
35.788	540.146	-40.888
35.796	540.306	-40.934
35.804	540.471	-40.982
35.813	540.637	-41.029
35.821	540.800	-41.077
35.829	540.973	-41.126
35.838	541.138	-41.175
35.846	541.295	-41.225
35.854	541.463	-41.276
35.863	541.628	-41.326
35.871	541.794	-41.377
35.879	541.961	-41.428
35.888	542.126	-41.478
35.896	542.292	-41.528
35.904	542.457	-41.578
35.913	542.620	-41.628
35.921	542.787	-41.678
35.929	542.955	-41.727
35.938	543.117	-41.776
35.946	543.282	-41.827
35.954	543.450	-41.878
35.963	543.615	-41.928
35.971	543.779	-41.979
35.979	543.949	-42.030
35.988	544.109	-42.080
35.996	544.275	-42.131
36.004	544.444	-42.181
36.013	544.604	-42.232
36.021	544.771	-42.283
36.029	544.939	-42.335
36.038	545.105	-42.386
36.046	545.263	-42.439
36.054	545.431	-42.492
36.063	545.596	-42.544
36.071	545.760	-42.598
36.079	545.930	-42.652
36.088	546.092	-42.706
36.096	546.255	-42.761
36.104	546.422	-42.815
36.113	546.588	-42.870
36.121	546.754	-42.924
36.129	546.917	-42.978
36.138	547.084	-43.032
36.146	547.248	-43.087
36.154	547.414	-43.143
36.163	547.581	-43.197
36.171	547.744	-43.252
36.179	547.905	-43.307
36.188	548.070	-43.362
36.196	548.241	-43.418
36.204	548.404	-43.475
36.213	548.569	-43.531
36.221	548.734	-43.588
36.229	548.897	-43.644
36.238	549.063	-43.702
36.246	549.226	-43.759
36.254	549.394	-43.816
36.263	549.557	-43.873
36.271	549.724	-43.929
36.279	549.889	-43.985
36.288	550.053	-44.041
