t /s	T /C	HF /mw
4.921	50.227	7.534
4.929	50.556	7.501
4.938	50.892	7.467
4.946	51.225	7.435
4.954	51.557	7.404
4.963	51.896	7.372
4.971	52.234	7.340
4.979	52.561	7.312
4.988	52.899	7.281
4.996	53.230	7.253
5.004	53.570	7.224
5.013	53.903	7.196
5.021	54.243	7.168
5.029	54.574	7.141
5.038	54.913	7.112
5.046	55.243	7.086
5.054	55.580	7.058
5.063	55.919	7.029
5.071	56.255	7.001
5.079	56.589	6.974
5.088	56.925	6.947
5.096	57.257	6.921
5.104	57.595	6.893
5.113	57.932	6.865
5.121	58.264	6.839
5.129	58.605	6.811
5.138	58.941	6.785
5.146	59.274	6.759
5.154	59.610	6.732
5.163	59.953	6.705
5.171	60.286	6.679
5.179	60.625	6.652
5.188	60.959	6.627
5.196	61.294	6.602
5.204	61.628	6.577
5.213	61.960	6.553
5.221	62.311	6.524
5.229	62.645	6.500
5.238	62.980	6.475
5.246	63.318	6.450
5.254	63.651	6.427
5.263	63.993	6.401
5.271	64.333	6.376
5.279	64.669	6.352
5.288	65.005	6.329
5.296	65.342	6.305
5.304	65.679	6.281
5.313	66.016	6.258
5.321	66.358	6.234
5.329	66.693	6.211
5.338	67.030	6.188
5.346	67.370	6.164
5.354	67.707	6.141
5.363	68.044	6.119
5.371	68.382	6.096
5.379	68.716	6.074
5.388	69.061	6.050
5.396	69.404	6.026
5.404	69.733	6.006
5.413	70.075	5.982
5.421	70.417	5.959
5.429	70.753	5.938
5.438	71.091	5.916
5.446	71.430	5.893
5.454	71.767	5.872
5.463	72.108	5.849
5.471	72.450	5.826
5.479	72.785	5.805
5.488	73.123	5.784
5.496	73.467	5.761
5.504	73.802	5.740
5.513	74.142	5.718
5.521	74.479	5.698
5.529	74.819	5.677
5.538	75.160	5.655
5.546	75.497	5.634
5.554	75.839	5.613
5.563	76.175	5.594
5.571	76.515	5.574
5.579	76.855	5.554
5.588	77.193	5.535
5.596	77.533	5.515
5.604	77.870	5.496
5.613	78.206	5.478
5.621	78.553	5.457
5.629	78.886	5.439
5.638	79.222	5.421
5.646	79.564	5.402
5.654	79.909	5.382
5.663	80.248	5.364
5.671	80.584	5.346
5.679	80.923	5.328
5.688	81.262	5.310
5.696	81.596	5.293
5.704	81.938	5.275
5.713	82.280	5.257
5.721	82.620	5.239
5.729	82.957	5.222
5.738	83.291	5.206
5.746	83.635	5.188
5.754	83.973	5.171
5.763	84.315	5.154
5.771	84.655	5.137
5.779	84.996	5.120
5.788	85.330	5.104
5.796	85.671	5.087
5.804	86.010	5.071
5.813	86.354	5.053
5.821	86.693	5.037
5.829	87.027	5.022
5.838	87.363	5.006
5.846	87.703	4.989
5.854	88.047	4.973
5.863	88.383	4.957
5.871	88.721	4.942
5.879	89.061	4.926
5.888	89.402	4.910
5.896	89.739	4.894
5.904	90.074	4.880
5.913	90.419	4.863
5.921	90.759	4.847
5.929	91.092	4.833
5.938	91.431	4.817
5.946	91.772	4.801
5.954	92.111	4.786
5.963	92.452	4.770
5.971	92.785	4.757
5.979	93.127	4.741
5.988	93.465	4.726
5.996	93.804	4.711
6.004	94.144	4.696
6.013	94.482	4.682
6.021	94.822	4.668
6.029	95.162	4.654
6.038	95.500	4.640
6.046	95.840	4.625
6.054	96.181	4.611
6.063	96.520	4.597
6.071	96.855	4.584
6.079	97.194	4.570
6.088	97.533	4.556
6.096	97.875	4.541
6.104	98.209	4.528
6.113	98.549	4.514
6.121	98.886	4.501
6.129	99.226	4.488
6.138	99.568	4.474
6.146	99.903	4.461
6.154	100.244	4.448
6.163	100.576	4.437
6.171	100.914	4.425
6.179	101.254	4.412
6.188	101.593	4.400
6.196	101.937	4.388
6.204	102.279	4.376
6.213	102.613	4.366
6.221	102.950	4.355
6.229	103.289	4.345
6.238	103.627	4.335
6.246	103.965	4.324
6.254	104.308	4.313
6.263	104.642	4.304
6.271	104.981	4.294
6.279	105.318	4.284
6.288	105.661	4.273
6.296	105.998	4.263
6.304	106.336	4.254
6.313	106.671	4.245
6.321	107.010	4.236
6.329	107.349	4.226
6.338	107.685	4.218
6.346	108.023	4.209
6.354	108.363	4.201
6.363	108.697	4.193
6.371	109.034	4.185
6.379	109.375	4.177
6.388	109.711	4.168
6.396	110.051	4.159
6.404	110.387	4.151
6.413	110.724	4.143
6.421	111.067	4.132
6.429	111.401	4.124
6.438	111.735	4.116
6.446	112.076	4.106
6.454	112.412	4.097
6.463	112.750	4.088
6.471	113.088	4.079
6.479	113.423	4.071
6.488	113.767	4.061
6.496	114.103	4.053
6.504	114.440	4.043
6.513	114.772	4.036
6.521	115.112	4.026
6.529	115.449	4.016
6.538	115.784	4.007
6.546	116.120	3.997
6.554	116.457	3.986
6.563	116.793	3.974
6.571	117.134	3.962
6.579	117.469	3.950
6.588	117.806	3.938
6.596	118.141	3.925
6.604	118.483	3.911
6.613	118.816	3.899
6.621	119.148	3.886
6.629	119.488	3.873
6.638	119.825	3.860
6.646	120.161	3.846
6.654	120.499	3.833
6.663	120.837	3.820
6.671	121.175	3.807
6.679	121.505	3.795
6.688	121.845	3.782
6.696	122.179	3.769
6.704	122.517	3.756
6.713	122.854	3.743
6.721	123.195	3.729
6.729	123.527	3.718
6.738	123.861	3.706
6.746	124.199	3.693
6.754	124.536	3.680
6.763	124.875	3.668
6.771	125.208	3.658
6.779	125.546	3.646
6.788	125.880	3.636
6.796	126.214	3.625
6.804	126.553	3.614
6.813	126.890	3.603
6.821	127.228	3.591
6.829	127.563	3.580
6.838	127.897	3.570
6.846	128.234	3.558
6.854	128.572	3.547
6.863	128.906	3.536
6.871	129.244	3.524
6.879	129.578	3.514
6.888	129.914	3.503
6.896	130.252	3.493
6.904	130.587	3.482
6.913	130.921	3.473
6.921	131.253	3.463
6.929	131.589	3.452
6.938	131.929	3.441
6.946	132.264	3.430
6.954	132.602	3.420
6.963	132.939	3.410
6.971	133.272	3.402
6.979	133.611	3.392
6.988	133.943	3.384
6.996	134.277	3.377
7.004	134.612	3.369
7.013	134.950	3.360
7.021	135.285	3.352
7.029	135.621	3.344
7.038	135.957	3.335
7.046	136.293	3.326
7.054	136.623	3.318
7.063	136.961	3.308
7.071	137.298	3.298
7.079	137.635	3.288
7.088	137.968	3.279
7.096	138.303	3.269
7.104	138.637	3.261
7.113	138.974	3.251
7.121	139.310	3.243
7.129	139.641	3.236
7.138	139.981	3.227
7.146	140.315	3.220
7.154	140.652	3.212
7.163	140.988	3.205
7.171	141.326	3.197
7.179	141.660	3.190
7.188	141.994	3.183
7.196	142.326	3.176
7.204	142.666	3.168
7.213	143.001	3.160
7.221	143.336	3.153
7.229	143.670	3.145
7.238	144.004	3.138
7.246	144.343	3.129
7.254	144.679	3.122
7.263	145.009	3.116
7.271	145.351	3.107
7.279	145.687	3.099
7.288	146.019	3.093
7.296	146.354	3.086
7.304	146.688	3.079
7.313	147.028	3.071
7.321	147.363	3.064
7.329	147.697	3.058
7.338	148.036	3.050
7.346	148.370	3.043
7.354	148.707	3.036
7.363	149.040	3.030
7.371	149.377	3.023
7.379	149.712	3.017
7.388	150.048	3.011
7.396	150.384	3.006
7.404	150.720	3.000
7.413	151.060	2.994
7.421	151.392	2.989
7.429	151.722	2.986
7.438	152.061	2.980
7.446	152.398	2.975
7.454	152.734	2.971
7.463	153.067	2.966
7.471	153.403	2.961
7.479	153.733	2.957
7.488	154.071	2.952
7.496	154.409	2.947
7.504	154.745	2.943
7.513	155.077	2.941
7.521	155.410	2.938
7.529	155.748	2.934
7.538	156.085	2.931
7.546	156.419	2.928
7.554	156.754	2.926
7.563	157.091	2.923
7.571	157.426	2.920
7.579	157.767	2.916
7.588	158.097	2.915
7.596	158.433	2.912
7.604	158.766	2.910
7.613	159.103	2.907
7.621	159.441	2.903
7.629	159.778	2.900
7.638	160.112	2.898
7.646	160.446	2.896
7.654	160.782	2.893
7.663	161.117	2.891
7.671	161.455	2.888
7.679	161.790	2.886
7.688	162.124	2.884
7.696	162.457	2.882
7.704	162.798	2.879
7.713	163.134	2.876
7.721	163.467	2.874
7.729	163.804	2.872
7.738	164.142	2.869
7.746	164.475	2.867
7.754	164.814	2.865
7.763	165.147	2.863
7.771	165.488	2.860
7.779	165.822	2.859
7.788	166.156	2.856
7.796	166.493	2.854
7.804	166.828	2.853
7.813	167.166	2.850
7.821	167.502	2.849
7.829	167.834	2.849
7.838	168.172	2.848
7.846	168.508	2.847
7.854	168.845	2.847
7.863	169.180	2.847
7.871	169.517	2.847
7.879	169.849	2.849
7.888	170.187	2.849
7.896	170.523	2.850
7.904	170.860	2.852
7.913	171.198	2.853
7.921	171.534	2.854
7.929	171.869	2.857
7.938	172.207	2.859
7.946	172.545	2.861
7.954	172.876	2.864
7.963	173.214	2.866
7.971	173.550	2.868
7.979	173.887	2.870
7.988	174.222	2.873
7.996	174.562	2.874
8.004	174.896	2.876
8.013	175.228	2.880
8.021	175.568	2.882
8.029	175.909	2.883
8.038	176.245	2.887
8.046	176.577	2.891
8.054	176.918	2.893
8.063	177.254	2.898
8.071	177.589	2.903
8.079	177.929	2.908
8.088	178.266	2.916
8.096	178.602	2.923
8.104	178.933	2.931
8.113	179.270	2.938
8.121	179.609	2.944
8.129	179.948	2.951
8.138	180.285	2.958
8.146	180.617	2.965
8.154	180.958	2.971
8.163	181.291	2.978
8.171	181.629	2.982
8.179	181.969	2.984
8.188	182.303	2.986
8.196	182.639	2.988
8.204	182.975	2.989
8.213	183.317	2.989
8.221	183.647	2.991
8.229	183.982	2.991
8.238	184.318	2.990
8.246	184.650	2.990
8.254	184.990	2.989
8.263	185.325	2.989
8.271	185.663	2.990
8.279	185.999	2.991
8.288	186.337	2.992
8.296	186.672	2.992
8.304	187.011	2.992
8.313	187.348	2.992
8.321	187.680	2.994
8.329	188.020	2.994
8.338	188.353	2.996
8.346	188.688	2.998
8.354	189.026	2.999
8.363	189.360	3.002
8.371	189.694	3.004
8.379	190.034	3.006
8.388	190.370	3.009
8.396	190.704	3.012
8.404	191.042	3.014
8.413	191.381	3.017
8.421	191.719	3.018
8.429	192.050	3.021
8.438	192.382	3.024
8.446	192.719	3.026
8.454	193.061	3.027
8.463	193.396	3.030
8.471	193.720	3.035
8.479	194.070	3.035
8.488	194.404	3.039
8.496	194.742	3.041
8.504	195.077	3.046
8.513	195.407	3.051
8.521	195.749	3.054
8.529	196.086	3.058
8.538	196.422	3.062
8.546	196.756	3.066
8.554	197.097	3.068
8.563	197.428	3.072
8.571	197.767	3.075
8.579	198.100	3.078
8.588	198.438	3.081
8.596	198.774	3.084
8.604	199.109	3.087
8.613	199.444	3.091
8.621	199.786	3.093
8.629	200.118	3.098
8.638	200.454	3.102
8.646	200.787	3.108
8.654	201.126	3.112
8.663	201.462	3.118
8.671	201.800	3.123
8.679	202.136	3.128
8.688	202.473	3.134
8.696	202.807	3.140
8.704	203.144	3.146
8.713	203.481	3.152
8.721	203.818	3.158
8.729	204.151	3.165
8.738	204.490	3.171
8.746	204.826	3.178
8.754	205.159	3.185
8.763	205.497	3.192
8.771	205.836	3.198
8.779	206.168	3.205
8.788	206.510	3.211
8.796	206.844	3.219
8.804	207.183	3.226
8.813	207.518	3.235
8.821	207.857	3.243
8.829	208.191	3.253
8.838	208.528	3.262
8.846	208.864	3.271
8.854	209.197	3.283
8.863	209.534	3.294
8.871	209.872	3.306
8.879	210.209	3.318
8.888	210.541	3.331
8.896	210.879	3.342
8.904	211.214	3.355
8.913	211.552	3.368
8.921	211.888	3.381
8.929	212.220	3.396
8.938	212.559	3.409
8.946	212.897	3.422
8.954	213.233	3.435
8.963	213.571	3.448
8.971	213.903	3.462
8.979	214.243	3.474
8.988	214.574	3.487
8.996	214.911	3.499
9.004	215.252	3.510
9.013	215.586	3.522
9.021	215.923	3.532
9.029	216.261	3.542
9.038	216.596	3.552
9.046	216.932	3.562
9.054	217.269	3.571
9.063	217.608	3.580
9.071	217.946	3.589
9.079	218.279	3.599
9.088	218.619	3.608
9.096	218.957	3.616
9.104	219.289	3.627
9.113	219.626	3.636
9.121	219.963	3.646
9.129	220.298	3.657
9.138	220.636	3.667
9.146	220.973	3.678
9.154	221.308	3.688
9.163	221.645	3.698
9.171	221.981	3.708
9.179	222.315	3.720
9.188	222.653	3.730
9.196	222.989	3.741
9.204	223.323	3.752
9.213	223.661	3.762
9.221	223.997	3.773
9.229	224.334	3.785
9.238	224.673	3.796
9.246	225.006	3.809
9.254	225.336	3.822
9.263	225.680	3.832
9.271	226.014	3.844
9.279	226.350	3.857
9.288	226.688	3.870
9.296	227.024	3.884
9.304	227.366	3.896
9.313	227.696	3.911
9.321	228.035	3.924
9.329	228.373	3.938
9.338	228.709	3.954
9.346	229.043	3.971
9.354	229.374	3.987
9.363	229.714	4.002
9.371	230.050	4.018
9.379	230.385	4.034
9.388	230.720	4.050
9.396	231.058	4.067
9.404	231.397	4.086
9.413	231.730	4.104
9.421	232.066	4.122
9.429	232.399	4.140
9.438	232.735	4.158
9.446	233.072	4.175
9.454	233.411	4.192
9.463	233.748	4.209
9.471	234.086	4.226
9.479	234.417	4.241
9.488	234.755	4.255
9.496	235.090	4.269
9.504	235.423	4.283
9.513	235.760	4.297
9.521	236.100	4.310
9.529	236.436	4.324
9.538	236.765	4.338
9.546	237.100	4.351
9.554	237.439	4.362
9.563	237.785	4.373
9.571	238.116	4.386
9.579	238.451	4.398
9.588	238.784	4.410
9.596	239.122	4.421
9.604	239.458	4.432
9.613	239.791	4.443
9.621	240.129	4.453
9.629	240.466	4.463
9.638	240.799	4.474
9.646	241.140	4.482
9.654	241.472	4.492
9.663	241.805	4.501
9.671	242.143	4.510
9.679	242.476	4.518
9.688	242.817	4.526
9.696	243.153	4.534
9.704	243.489	4.542
9.713	243.821	4.552
9.721	244.152	4.561
9.729	244.491	4.568
9.738	244.831	4.576
9.746	245.167	4.584
9.754	245.502	4.594
9.763	245.835	4.603
9.771	246.171	4.613
9.779	246.505	4.624
9.788	246.839	4.635
9.796	247.177	4.645
9.804	247.511	4.656
9.813	247.848	4.666
9.821	248.181	4.677
9.829	248.520	4.687
9.838	248.857	4.697
9.846	249.191	4.707
9.854	249.528	4.715
9.863	249.866	4.723
9.871	250.205	4.731
9.879	250.537	4.739
9.888	250.872	4.747
9.896	251.211	4.754
9.904	251.545	4.761
9.913	251.881	4.768
9.921	252.216	4.774
9.929	252.553	4.780
9.938	252.886	4.787
9.946	253.223	4.793
9.954	253.559	4.799
9.963	253.902	4.803
9.971	254.231	4.810
9.979	254.569	4.815
9.988	254.901	4.822
9.996	255.238	4.828
10.004	255.578	4.835
10.013	255.913	4.844
10.021	256.249	4.853
10.029	256.587	4.862
10.038	256.923	4.870
10.046	257.254	4.879
10.054	257.591	4.888
10.063	257.932	4.897
10.071	258.259	4.908
10.079	258.602	4.917
10.088	258.933	4.927
10.096	259.276	4.935
10.104	259.611	4.944
10.113	259.946	4.953
10.121	260.283	4.962
10.129	260.620	4.971
10.138	260.952	4.981
10.146	261.292	4.990
10.154	261.628	4.998
10.163	261.962	5.007
10.171	262.299	5.014
10.179	262.633	5.022
10.188	262.967	5.029
10.196	263.304	5.036
10.204	263.640	5.044
10.213	263.974	5.051
10.221	264.310	5.058
10.229	264.645	5.065
10.238	264.982	5.072
10.246	265.322	5.079
10.254	265.657	5.087
10.263	265.992	5.095
10.271	266.325	5.104
10.279	266.663	5.112
10.288	267.001	5.120
10.296	267.336	5.129
10.304	267.673	5.138
10.313	268.008	5.146
10.321	268.344	5.153
10.329	268.678	5.161
10.338	269.015	5.169
10.346	269.352	5.176
10.354	269.686	5.182
10.363	270.023	5.188
10.371	270.361	5.194
10.379	270.695	5.200
10.388	271.031	5.205
10.396	271.366	5.210
10.404	271.703	5.215
10.413	272.038	5.219
10.421	272.376	5.223
10.429	272.711	5.227
10.438	273.049	5.230
10.446	273.383	5.234
10.454	273.720	5.237
10.463	274.052	5.240
10.471	274.389	5.243
10.479	274.724	5.246
10.488	275.059	5.249
10.496	275.397	5.252
10.504	275.731	5.255
10.513	276.065	5.258
10.521	276.401	5.261
10.529	276.740	5.263
10.538	277.073	5.266
10.546	277.412	5.269
10.554	277.749	5.271
10.563	278.080	5.274
10.571	278.418	5.276
10.579	278.757	5.278
10.588	279.089	5.281
10.596	279.422	5.283
10.604	279.757	5.286
10.613	280.092	5.288
10.621	280.431	5.289
10.629	280.775	5.291
10.638	281.104	5.294
10.646	281.441	5.295
10.654	281.776	5.297
10.663	282.108	5.300
10.671	282.453	5.301
10.679	282.782	5.304
10.688	283.120	5.305
10.696	283.454	5.307
10.704	283.784	5.309
10.713	284.118	5.311
10.721	284.451	5.313
10.729	284.790	5.314
10.738	285.126	5.316
10.746	285.463	5.317
10.754	285.804	5.317
10.763	286.136	5.320
10.771	286.474	5.322
10.779	286.808	5.325
10.788	287.144	5.329
10.796	287.479	5.334
10.804	287.819	5.337
10.813	288.150	5.342
10.821	288.484	5.347
10.829	288.817	5.352
10.838	289.156	5.356
10.846	289.491	5.360
10.854	289.827	5.363
10.863	290.162	5.364
10.871	290.501	5.364
10.879	290.834	5.364
10.888	291.171	5.363
10.896	291.504	5.362
10.904	291.839	5.361
10.913	292.178	5.359
10.921	292.512	5.358
10.929	292.845	5.356
10.938	293.183	5.354
10.946	293.514	5.353
10.954	293.856	5.350
10.963	294.190	5.348
10.971	294.526	5.345
10.979	294.858	5.342
10.988	295.197	5.337
10.996	295.527	5.333
11.004	295.865	5.328
11.013	296.196	5.324
11.021	296.530	5.319
11.029	296.868	5.313
11.038	297.203	5.307
11.046	297.539	5.300
11.054	297.875	5.293
11.063	298.210	5.286
11.071	298.544	5.279
11.079	298.881	5.270
11.088	299.217	5.262
11.096	299.547	5.254
11.104	299.885	5.244
11.113	300.218	5.235
11.121	300.557	5.224
11.129	300.892	5.213
11.138	301.226	5.202
11.146	301.556	5.192
11.154	301.890	5.180
11.163	302.228	5.168
11.171	302.562	5.155
11.179	302.897	5.141
11.188	303.229	5.128
11.196	303.564	5.114
11.204	303.902	5.100
11.213	304.239	5.084
11.221	304.570	5.069
11.229	304.902	5.053
11.238	305.237	5.036
11.246	305.573	5.018
11.254	305.908	4.999
11.263	306.245	4.980
11.271	306.574	4.961
11.279	306.911	4.940
11.288	307.245	4.919
11.296	307.579	4.900
11.304	307.903	4.882
11.313	308.248	4.861
11.321	308.583	4.841
11.329	308.917	4.821
11.338	309.255	4.799
11.346	309.587	4.777
11.354	309.919	4.755
11.363	310.252	4.732
11.371	310.588	4.708
11.379	310.918	4.683
11.388	311.252	4.655
11.396	311.586	4.626
11.404	311.917	4.596
11.413	312.252	4.565
11.421	312.585	4.534
11.429	312.922	4.502
11.438	313.254	4.469
11.446	313.586	4.435
11.454	313.924	4.400
11.463	314.257	4.365
11.471	314.587	4.329
11.479	314.921	4.292
11.488	315.256	4.255
11.496	315.589	4.218
11.504	315.926	4.179
11.513	316.260	4.139
11.521	316.591	4.099
11.529	316.923	4.058
11.538	317.259	4.017
11.546	317.590	3.974
11.554	317.923	3.931
11.563	318.256	3.887
11.571	318.593	3.842
11.579	318.920	3.798
11.588	319.252	3.752
11.596	319.585	3.706
11.604	319.918	3.660
11.613	320.254	3.613
11.621	320.588	3.565
11.629	320.920	3.517
11.638	321.253	3.469
11.646	321.585	3.420
11.654	321.917	3.371
11.663	322.251	3.322
11.671	322.581	3.273
11.679	322.916	3.222
11.688	323.248	3.172
11.696	323.581	3.122
11.704	323.911	3.072
11.713	324.243	3.023
11.721	324.578	2.973
11.729	324.911	2.924
11.738	325.236	2.876
11.746	325.572	2.827
11.754	325.904	2.778
11.763	326.238	2.729
11.771	326.573	2.679
11.779	326.906	2.629
11.788	327.236	2.579
11.796	327.571	2.529
11.804	327.907	2.479
11.813	328.240	2.428
11.821	328.569	2.378
11.829	328.904	2.327
11.838	329.237	2.277
11.846	329.570	2.227
11.854	329.901	2.179
11.863	330.235	2.131
11.871	330.568	2.085
11.879	330.901	2.040
11.888	331.235	1.995
11.896	331.571	1.950
11.904	331.902	1.908
11.913	332.233	1.866
11.921	332.570	1.825
11.929	332.903	1.785
11.938	333.236	1.747
11.946	333.572	1.709
11.954	333.903	1.674
11.963	334.237	1.639
11.971	334.571	1.605
11.979	334.910	1.572
11.988	335.241	1.541
11.996	335.575	1.511
12.004	335.906	1.483
12.013	336.245	1.455
12.021	336.578	1.427
12.029	336.911	1.401
12.038	337.247	1.374
12.046	337.579	1.348
12.054	337.919	1.323
12.063	338.252	1.299
12.071	338.587	1.275
12.079	338.920	1.253
12.088	339.255	1.230
12.096	339.588	1.209
12.104	339.922	1.188
12.113	340.258	1.169
12.121	340.594	1.150
12.129	340.931	1.132
12.138	341.271	1.114
12.146	341.601	1.097
12.154	341.937	1.080
12.163	342.270	1.064
12.171	342.608	1.048
12.179	342.942	1.033
12.188	343.278	1.018
12.196	343.613	1.003
12.204	343.948	0.989
12.213	344.280	0.975
12.221	344.613	0.960
12.229	344.954	0.946
12.238	345.287	0.934
12.246	345.622	0.921
12.254	345.960	0.908
12.263	346.292	0.897
12.271	346.632	0.885
12.279	346.963	0.875
12.288	347.305	0.864
12.296	347.632	0.856
12.304	347.969	0.847
12.313	348.308	0.839
12.321	348.643	0.831
12.329	348.981	0.822
12.338	349.318	0.814
12.346	349.651	0.806
12.354	349.989	0.797
12.363	350.322	0.788
12.371	350.660	0.778
12.379	350.994	0.770
12.388	351.331	0.762
12.396	351.665	0.754
12.404	352.002	0.747
12.413	352.341	0.740
12.421	352.673	0.736
12.429	353.008	0.732
12.438	353.343	0.729
12.446	353.680	0.728
12.454	354.017	0.728
12.463	354.354	0.728
12.471	354.691	0.729
12.479	355.024	0.731
12.488	355.361	0.734
12.496	355.700	0.739
12.504	356.037	0.745
12.513	356.374	0.753
12.521	356.713	0.761
12.529	357.047	0.771
12.538	357.388	0.782
12.546	357.725	0.795
12.554	358.063	0.809
12.563	358.399	0.826
12.571	358.741	0.844
12.579	359.077	0.865
12.588	359.416	0.888
12.596	359.755	0.914
12.604	360.096	0.942
12.613	360.432	0.973
12.621	360.771	1.008
12.629	361.109	1.046
12.638	361.451	1.088
12.646	361.788	1.135
12.654	362.126	1.186
12.663	362.468	1.241
12.671	362.809	1.303
12.679	363.152	1.370
12.688	363.494	1.442
12.696	363.835	1.521
12.704	364.180	1.606
12.713	364.519	1.700
12.721	364.862	1.801
12.729	365.208	1.909
12.738	365.554	2.027
12.746	365.895	2.154
12.754	366.245	2.289
12.763	366.590	2.436
12.771	366.935	2.594
12.779	367.280	2.765
12.788	367.635	2.946
12.796	367.981	3.143
12.804	368.332	3.352
12.813	368.685	3.577
12.821	369.038	3.817
12.829	369.393	4.073
12.838	369.747	4.348
12.846	370.099	4.641
12.854	370.459	4.953
12.863	370.818	5.284
12.871	371.175	5.637
12.879	371.535	6.011
12.888	371.898	6.408
12.896	372.260	6.828
12.904	372.621	7.272
12.913	372.988	7.740
12.921	373.356	8.233
12.929	373.725	8.751
12.938	374.097	9.294
12.946	374.462	9.863
12.954	374.835	10.457
12.963	375.202	11.078
12.971	375.580	11.722
12.979	375.952	12.393
12.988	376.323	13.089
12.996	376.703	13.808
13.004	377.086	14.551
13.013	377.466	15.318
13.021	377.841	16.108
13.029	378.220	16.921
13.038	378.605	17.756
13.046	378.990	18.612
13.054	379.372	19.490
13.063	379.758	20.389
13.071	380.144	21.308
13.079	380.529	22.248
13.088	380.917	23.209
13.096	381.307	24.191
13.104	381.696	25.193
13.113	382.087	26.216
13.121	382.475	27.259
13.129	382.866	28.320
13.138	383.258	29.400
13.146	383.649	30.496
13.154	384.041	31.606
13.163	384.430	32.728
13.171	384.820	33.857
13.179	385.210	34.991
13.188	385.599	36.125
13.196	385.982	37.258
13.204	386.369	38.382
13.213	386.756	39.495
13.221	387.137	40.591
13.229	387.516	41.668
13.238	387.898	42.721
13.246	388.271	43.749
13.254	388.650	44.748
13.263	389.022	45.716
13.271	389.394	46.652
13.279	389.766	47.553
13.288	390.138	48.417
13.296	390.502	49.244
13.304	390.867	50.033
13.313	391.229	50.784
13.321	391.590	51.495
13.329	391.946	52.165
13.338	392.304	52.794
13.346	392.659	53.382
13.354	393.012	53.927
13.363	393.362	54.431
13.371	393.712	54.892
13.379	394.058	55.311
13.388	394.405	55.687
13.396	394.746	56.021
13.404	395.085	56.314
13.413	395.426	56.565
13.421	395.765	56.776
13.429	396.095	56.947
13.438	396.431	57.078
13.446	396.763	57.170
13.454	397.094	57.225
13.463	397.421	57.243
13.471	397.749	57.225
13.479	398.079	57.172
13.488	398.406	57.085
13.496	398.729	56.966
13.504	399.053	56.815
13.513	399.376	56.634
13.521	399.696	56.423
13.529	400.011	56.186
13.538	400.330	55.922
13.546	400.646	55.634
13.554	400.964	55.323
13.563	401.279	54.990
13.571	401.602	54.635
13.579	401.912	54.261
13.588	402.228	53.870
13.596	402.542	53.462
13.604	402.855	53.038
13.613	403.167	52.600
13.621	403.480	52.147
13.629	403.792	51.682
13.638	404.103	51.205
13.646	404.415	50.718
13.654	404.724	50.221
13.663	405.036	49.715
13.671	405.345	49.200
13.679	405.659	48.678
13.688	405.965	48.149
13.696	406.274	47.615
13.704	406.586	47.075
13.713	406.897	46.531
13.721	407.204	45.983
13.729	407.514	45.431
13.738	407.825	44.876
13.746	408.135	44.318
13.754	408.445	43.758
13.763	408.751	43.198
13.771	409.058	42.636
13.779	409.371	42.073
13.788	409.683	41.509
13.796	409.991	40.946
13.804	410.299	40.383
13.813	410.609	39.820
13.821	410.918	39.258
13.829	411.230	38.697
13.838	411.536	38.139
13.846	411.844	37.582
13.854	412.155	37.027
13.863	412.465	36.475
13.871	412.774	35.925
13.879	413.087	35.376
13.888	413.394	34.833
13.896	413.707	34.294
13.904	414.019	33.758
13.913	414.334	33.226
13.921	414.641	32.698
13.929	414.951	32.173
13.938	415.265	31.653
13.946	415.578	31.136
13.954	415.888	30.625
13.963	416.199	30.118
13.971	416.511	29.615
13.979	416.824	29.116
13.988	417.138	28.620
13.996	417.455	28.129
14.004	417.766	27.642
14.013	418.082	27.160
14.021	418.394	26.682
14.029	418.706	26.209
14.038	419.024	25.740
14.046	419.334	25.277
14.054	419.652	24.818
14.063	419.966	24.364
14.071	420.279	23.916
14.079	420.601	23.471
14.088	420.913	23.033
14.096	421.227	22.600
14.104	421.538	22.173
14.113	421.859	21.749
14.121	422.177	21.331
14.129	422.496	20.919
14.138	422.812	20.512
14.146	423.122	20.111
14.154	423.447	19.711
14.163	423.764	19.319
14.171	424.080	18.930
14.179	424.403	18.545
14.188	424.720	18.167
14.196	425.039	17.793
14.204	425.357	17.423
14.213	425.680	17.058
14.221	425.998	16.699
14.229	426.316	16.345
14.238	426.638	15.996
14.246	426.959	15.652
14.254	427.278	15.313
14.263	427.596	14.980
14.271	427.919	14.650
14.279	428.241	14.326
14.288	428.563	14.005
14.296	428.883	13.690
14.304	429.208	13.379
14.313	429.528	13.072
14.321	429.850	12.770
14.329	430.171	12.472
14.338	430.495	12.179
14.346	430.821	11.890
14.354	431.146	11.604
14.363	431.466	11.322
14.371	431.791	11.044
14.379	432.112	10.770
14.388	432.443	10.498
14.396	432.764	10.232
14.404	433.087	9.968
14.413	433.408	9.708
14.421	433.738	9.450
14.429	434.062	9.195
14.438	434.389	8.944
14.446	434.712	8.697
14.454	435.038	8.453
14.463	435.365	8.211
14.471	435.688	7.973
14.479	436.014	7.737
14.488	436.342	7.505
14.496	436.666	7.276
14.504	436.993	7.049
14.513	437.320	6.825
14.521	437.649	6.604
14.529	437.975	6.386
14.538	438.302	6.170
14.546	438.630	5.957
14.554	438.956	5.747
14.563	439.284	5.539
14.571	439.614	5.333
14.579	439.941	5.130
14.588	440.266	4.929
14.596	440.595	4.731
14.604	440.926	4.534
14.613	441.251	4.340
14.621	441.579	4.146
14.629	441.909	3.954
14.638	442.239	3.765
14.646	442.567	3.577
14.654	442.894	3.392
14.663	443.223	3.208
14.671	443.553	3.026
14.679	443.883	2.846
14.688	444.214	2.667
14.696	444.538	2.492
14.704	444.868	2.318
14.713	445.202	2.144
14.721	445.527	1.973
14.729	445.857	1.802
14.738	446.188	1.633
14.746	446.516	1.466
14.754	446.846	1.300
14.763	447.178	1.135
14.771	447.506	0.972
14.779	447.837	0.809
14.788	448.168	0.648
14.796	448.500	0.488
14.804	448.830	0.329
14.813	449.163	0.171
14.821	449.494	0.014
14.829	449.821	-0.141
14.838	450.154	-0.297
14.846	450.483	-0.451
14.854	450.819	-0.604
14.863	451.149	-0.756
14.871	451.480	-0.907
14.879	451.813	-1.058
14.888	452.145	-1.207
14.896	452.476	-1.355
14.904	452.805	-1.502
14.913	453.136	-1.648
14.921	453.469	-1.794
14.929	453.801	-1.938
14.938	454.133	-2.082
14.946	454.463	-2.225
14.954	454.798	-2.367
14.963	455.128	-2.509
14.971	455.461	-2.650
14.979	455.793	-2.790
14.988	456.128	-2.930
14.996	456.459	-3.068
15.004	456.793	-3.207
15.013	457.123	-3.344
15.021	457.460	-3.482
15.029	457.784	-3.616
15.038	458.120	-3.752
15.046	458.454	-3.887
15.054	458.783	-4.020
15.063	459.114	-4.152
15.071	459.449	-4.286
15.079	459.781	-4.418
15.088	460.114	-4.550
15.096	460.448	-4.682
15.104	460.781	-4.812
15.113	461.111	-4.942
15.121	461.449	-5.074
15.129	461.779	-5.203
15.138	462.111	-5.332
15.146	462.444	-5.462
15.154	462.780	-5.591
15.163	463.110	-5.720
15.171	463.440	-5.847
15.179	463.779	-5.976
15.188	464.111	-6.103
15.196	464.443	-6.230
15.204	464.773	-6.356
15.213	465.110	-6.483
15.221	465.443	-6.609
15.229	465.777	-6.734
15.238	466.114	-6.859
15.246	466.444	-6.982
15.254	466.779	-7.105
15.263	467.112	-7.228
15.271	467.445	-7.351
15.279	467.780	-7.473
15.288	468.114	-7.594
15.296	468.446	-7.715
15.304	468.781	-7.837
15.313	469.113	-7.957
15.321	469.448	-8.078
15.329	469.782	-8.199
15.338	470.112	-8.320
15.346	470.446	-8.442
15.354	470.781	-8.563
15.363	471.113	-8.683
15.371	471.448	-8.804
15.379	471.779	-8.924
15.388	472.114	-9.044
15.396	472.448	-9.165
15.404	472.783	-9.284
15.413	473.115	-9.402
15.421	473.447	-9.520
15.429	473.780	-9.638
15.438	474.115	-9.756
15.446	474.449	-9.873
15.454	474.782	-9.989
15.463	475.112	-10.105
15.471	475.449	-10.221
15.479	475.787	-10.337
15.488	476.114	-10.451
15.496	476.452	-10.567
15.504	476.782	-10.681
15.513	477.115	-10.795
15.521	477.450	-10.909
15.529	477.786	-11.023
15.538	478.119	-11.135
15.546	478.450	-11.248
15.554	478.788	-11.360
15.563	479.117	-11.471
15.571	479.453	-11.582
15.579	479.785	-11.692
15.588	480.118	-11.802
15.596	480.454	-11.912
15.604	480.790	-12.021
15.613	481.121	-12.130
15.621	481.456	-12.238
15.629	481.789	-12.347
15.638	482.124	-12.454
15.646	482.455	-12.560
15.654	482.792	-12.666
15.663	483.124	-12.771
15.671	483.459	-12.875
15.679	483.794	-12.979
15.688	484.128	-13.083
15.696	484.463	-13.186
15.704	484.797	-13.287
15.713	485.129	-13.387
15.721	485.466	-13.488
15.729	485.801	-13.588
15.738	486.132	-13.686
15.746	486.468	-13.785
15.754	486.801	-13.882
15.763	487.138	-13.979
15.771	487.475	-14.075
15.779	487.807	-14.171
15.788	488.142	-14.265
15.796	488.478	-14.359
15.804	488.812	-14.452
15.813	489.147	-14.544
15.821	489.482	-14.636
15.829	489.817	-14.727
15.838	490.152	-14.818
15.846	490.485	-14.908
15.854	490.819	-14.997
15.863	491.152	-15.085
15.871	491.486	-15.173
15.879	491.818	-15.260
15.888	492.158	-15.349
15.896	492.492	-15.436
15.904	492.827	-15.522
15.913	493.160	-15.607
15.921	493.497	-15.693
15.929	493.832	-15.778
15.938	494.168	-15.863
15.946	494.499	-15.946
15.954	494.834	-16.029
15.963	495.172	-16.112
15.971	495.506	-16.193
15.979	495.839	-16.274
15.988	496.178	-16.356
15.996	496.508	-16.436
16.004	496.845	-16.517
16.013	497.179	-16.597
16.021	497.515	-16.676
16.029	497.846	-16.755
16.038	498.186	-16.835
16.046	498.518	-16.915
16.054	498.852	-16.994
16.063	499.190	-17.073
16.071	499.528	-17.152
16.079	499.862	-17.230
16.088	500.196	-17.308
16.096	500.532	-17.387
16.104	500.868	-17.465
16.113	501.203	-17.544
16.121	501.537	-17.623
16.129	501.868	-17.701
16.138	502.206	-17.779
16.146	502.539	-17.855
16.154	502.870	-17.931
16.163	503.208	-18.009
16.171	503.544	-18.085
16.179	503.875	-18.161
16.188	504.213	-18.238
16.196	504.548	-18.315
16.204	504.884	-18.391
16.213	505.220	-18.469
16.221	505.554	-18.547
16.229	505.892	-18.626
16.238	506.226	-18.706
16.246	506.561	-18.786
16.254	506.897	-18.867
16.263	507.228	-18.947
16.271	507.562	-19.028
16.279	507.901	-19.109
16.288	508.232	-19.189
16.296	508.567	-19.270
16.304	508.899	-19.350
16.313	509.237	-19.431
16.321	509.568	-19.510
16.329	509.907	-19.591
16.338	510.238	-19.669
16.346	510.571	-19.749
16.354	510.911	-19.831
16.363	511.247	-19.912
16.371	511.580	-19.994
16.379	511.915	-20.077
16.388	512.248	-20.159
16.396	512.581	-20.241
16.404	512.920	-20.326
16.413	513.254	-20.410
16.421	513.585	-20.494
16.429	513.917	-20.577
16.438	514.252	-20.662
16.446	514.590	-20.746
16.454	514.923	-20.828
16.463	515.258	-20.912
16.471	515.593	-20.997
16.479	515.922	-21.081
16.488	516.254	-21.166
16.496	516.589	-21.251
16.504	516.922	-21.334
16.513	517.259	-21.419
16.521	517.593	-21.504
16.529	517.927	-21.589
16.538	518.263	-21.676
16.546	518.596	-21.762
16.554	518.931	-21.850
16.563	519.264	-21.936
16.571	519.596	-22.023
16.579	519.928	-22.112
16.588	520.260	-22.201
16.596	520.597	-22.291
16.604	520.929	-22.380
16.613	521.261	-22.471
16.621	521.594	-22.562
16.629	521.929	-22.653
16.638	522.263	-22.743
16.646	522.598	-22.834
16.654	522.931	-22.925
16.663	523.263	-23.016
16.671	523.599	-23.110
16.679	523.928	-23.202
16.688	524.265	-23.297
16.696	524.598	-23.389
16.704	524.934	-23.483
16.713	525.269	-23.577
16.721	525.595	-23.671
16.729	525.933	-23.767
16.738	526.264	-23.862
16.746	526.597	-23.957
16.754	526.930	-24.053
16.763	527.263	-24.149
16.771	527.598	-24.246
16.779	527.932	-24.343
16.788	528.266	-24.440
16.796	528.598	-24.536
16.804	528.930	-24.633
16.813	529.266	-24.731
16.821	529.598	-24.829
16.829	529.928	-24.927
16.838	530.265	-25.027
16.846	530.595	-25.127
16.854	530.929	-25.229
16.863	531.264	-25.331
16.871	531.598	-25.433
16.879	531.930	-25.536
16.888	532.258	-25.639
16.896	532.591	-25.743
16.904	532.924	-25.846
16.913	533.255	-25.949
16.921	533.592	-26.053
16.929	533.916	-26.153
16.938	534.260	-26.257
16.946	534.592	-26.359
16.954	534.921	-26.461
16.963	535.253	-26.564
16.971	535.584	-26.667
16.979	535.922	-26.770
16.988	536.257	-26.872
16.996	536.586	-26.974
17.004	536.912	-27.078
17.013	537.249	-27.184
17.021	537.580	-27.289
17.029	537.913	-27.395
17.038	538.255	-27.503
17.046	538.586	-27.607
17.054	538.918	-27.713
17.063	539.256	-27.820
17.071	539.588	-27.927
17.079	539.919	-28.034
17.088	540.252	-28.140
17.096	540.584	-28.243
17.104	540.922	-28.348
17.113	541.251	-28.450
17.121	541.585	-28.553
17.129	541.919	-28.655
17.138	542.253	-28.756
17.146	542.582	-28.856
17.154	542.915	-28.955
17.163	543.253	-29.054
17.171	543.583	-29.150
17.179	543.917	-29.247
17.188	544.252	-29.342
17.196	544.587	-29.436
17.204	544.918	-29.528
17.213	545.253	-29.620
17.221	545.587	-29.711
17.229	545.923	-29.801
17.238	546.252	-29.888
17.246	546.587	-29.975
17.254	546.922	-30.062
17.263	547.255	-30.146
17.271	547.591	-30.229
17.279	547.926	-30.311
17.288	548.258	-30.393
17.296	548.595	-30.473
17.304	548.928	-30.551
17.313	549.264	-30.628
17.321	549.599	-30.703
17.329	549.933	-30.776
17.338	550.267	-30.850
17.346	550.601	-30.922
17.354	550.936	-30.993
17.363	551.270	-31.063
17.371	551.605	-31.132
17.379	551.941	-31.200
17.388	552.274	-31.267
17.396	552.606	-31.333
17.404	552.945	-31.399
17.413	553.277	-31.463
17.421	553.615	-31.527
17.429	553.945	-31.589
17.438	554.285	-31.653
17.446	554.620	-31.716
17.454	554.954	-31.777
17.463	555.287	-31.837
17.471	555.625	-31.897
17.479	555.958	-31.956
17.488	556.294	-32.015
17.496	556.629	-32.072
17.504	556.966	-32.129
17.513	557.304	-32.186
17.521	557.635	-32.241
17.529	557.972	-32.298
17.538	558.305	-32.354
17.546	558.639	-32.411
17.554	558.975	-32.470
17.563	559.310	-32.529
17.571	559.645	-32.588
17.579	559.979	-32.650
17.588	560.316	-32.714
17.596	560.648	-32.777
17.604	560.984	-32.842
17.613	561.316	-32.908
17.621	561.653	-32.978
17.629	561.983	-33.046
17.638	562.319	-33.117
17.646	562.653	-33.189
17.654	562.987	-33.262
17.663	563.324	-33.335
17.671	563.658	-33.407
17.679	563.995	-33.481
17.688	564.326	-33.555
17.696	564.663	-33.630
17.704	564.994	-33.704
17.713	565.326	-33.780
17.721	565.665	-33.858
17.729	565.994	-33.935
17.738	566.331	-34.014
17.746	566.663	-34.095
17.754	566.998	-34.178
17.763	567.332	-34.263
17.771	567.666	-34.348
17.779	567.996	-34.433
17.788	568.336	-34.520
17.796	568.666	-34.607
17.804	569.000	-34.696
17.813	569.339	-34.786
17.821	569.665	-34.875
17.829	570.002	-34.967
17.838	570.333	-35.058
17.846	570.665	-35.150
17.854	570.999	-35.243
17.863	571.332	-35.337
17.871	571.667	-35.433
17.879	572.001	-35.530
17.888	572.336	-35.627
17.896	572.665	-35.726
17.904	572.996	-35.825
17.913	573.331	-35.926
17.921	573.666	-36.028
17.929	574.000	-36.131
17.938	574.332	-36.235
17.946	574.668	-36.339
17.954	575.000	-36.443
17.963	575.330	-36.546
17.971	575.664	-36.651
17.979	575.995	-36.754
17.988	576.332	-36.860
17.996	576.663	-36.964
18.004	576.992	-37.068
18.013	577.327	-37.173
18.021	577.659	-37.279
18.029	577.993	-37.386
18.038	578.323	-37.493
18.046	578.659	-37.601
18.054	578.990	-37.710
18.063	579.323	-37.820
18.071	579.658	-37.930
18.079	579.988	-38.040
18.088	580.320	-38.152
18.096	580.655	-38.263
18.104	580.981	-38.374
18.113	581.316	-38.486
18.121	581.647	-38.599
18.129	581.980	-38.712
18.138	582.307	-38.825
18.146	582.648	-38.939
18.154	582.978	-39.052
18.163	583.312	-39.165
18.171	583.641	-39.279
18.179	583.975	-39.394
18.188	584.309	-39.509
18.196	584.636	-39.623
18.204	584.973	-39.739
18.213	585.304	-39.855
18.221	585.637	-39.972
18.229	585.971	-40.089
18.238	586.298	-40.207
18.246	586.629	-40.327
18.254	586.960	-40.446
18.263	587.294	-40.568
18.271	587.623	-40.690
18.279	587.961	-40.814
18.288	588.287	-40.937
18.296	588.623	-41.064
18.304	588.953	-41.189
18.313	589.284	-41.316
18.321	589.616	-41.442
18.329	589.948	-41.568
18.338	590.278	-41.693
18.346	590.615	-41.819
18.354	590.946	-41.944
18.363	591.277	-42.069
18.371	591.607	-42.194
18.379	591.936	-42.316
18.388	592.272	-42.438
18.396	592.600	-42.558
18.404	592.933	-42.680
18.413	593.261	-42.801
18.421	593.593	-42.921
18.429	593.926	-43.042
18.438	594.258	-43.163
18.446	594.591	-43.283
18.454	594.917	-43.403
18.463	595.252	-43.525
18.471	595.587	-43.647
18.479	595.916	-43.770
18.488	596.249	-43.895
18.496	596.580	-44.020
18.504	596.913	-44.146
18.513	597.245	-44.271
18.521	597.576	-44.398
18.529	597.909	-44.524
18.538	598.239	-44.650
18.546	598.574	-44.778
18.554	598.902	-44.906
18.563	599.234	-45.034
18.571	599.567	-45.161
18.579	599.898	-45.288
18.588	600.232	-45.415
18.596	600.559	-45.543
18.604	600.891	-45.671
18.613	601.225	-45.799
18.621	601.553	-45.927
18.629	601.889	-46.056
18.638	602.211	-46.182
18.646	602.548	-46.311
18.654	602.876	-46.439
18.663	603.211	-46.569
18.671	603.543	-46.697
18.679	603.871	-46.827
18.688	604.202	-46.956
18.696	604.535	-47.085
18.704	604.866	-47.215
18.713	605.196	-47.344
18.721	605.530	-47.475
18.729	605.864	-47.604
18.738	606.191	-47.733
18.746	606.526	-47.863
18.754	606.859	-47.993
18.763	607.188	-48.123
18.771	607.517	-48.252
18.779	607.848	-48.381
18.788	608.181	-48.511
18.796	608.515	-48.640
18.804	608.841	-48.768
18.813	609.173	-48.899
18.821	609.505	-49.027
18.829	609.836	-49.155
18.838	610.166	-49.283
18.846	610.497	-49.410
18.854	610.830	-49.536
18.863	611.161	-49.663
18.871	611.494	-49.790
18.879	611.828	-49.916
18.888	612.158	-50.042
18.896	612.490	-50.167
18.904	612.819	-50.292
18.913	613.152	-50.419
18.921	613.481	-50.544
18.929	613.814	-50.669
18.938	614.147	-50.794
18.946	614.475	-50.918
18.954	614.811	-51.042
18.963	615.144	-51.167
18.971	615.468	-51.290
18.979	615.802	-51.414
18.988	616.132	-51.537
18.996	616.465	-51.659
19.004	616.798	-51.781
19.013	617.130	-51.904
19.021	617.460	-52.027
19.029	617.795	-52.151
19.038	618.125	-52.274
19.046	618.456	-52.397
19.054	618.785	-52.519
19.063	619.113	-52.641
19.071	619.451	-52.765
19.079	619.777	-52.888
19.088	620.111	-53.012
19.096	620.437	-53.135
19.104	620.772	-53.259
19.113	621.103	-53.381
19.121	621.435	-53.504
19.129	621.766	-53.628
19.138	622.101	-53.752
19.146	622.431	-53.876
19.154	622.758	-54.001
19.163	623.090	-54.127
19.171	623.420	-54.251
19.179	623.756	-54.377
19.188	624.082	-54.501
19.196	624.412	-54.629
19.204	624.743	-54.757
19.213	625.072	-54.884
19.221	625.406	-55.012
19.229	625.735	-55.138
19.238	626.066	-55.264
19.246	626.398	-55.392
19.254	626.729	-55.521
19.263	627.061	-55.652
19.271	627.391	-55.782
19.279	627.719	-55.911
19.288	628.052	-56.042
19.296	628.380	-56.172
19.304	628.706	-56.304
19.313	629.046	-56.440
19.321	629.379	-56.575
19.329	629.711	-56.713
19.338	630.038	-56.851
19.346	630.368	-56.991
19.354	630.701	-57.131
